accel_x,accel_y,accel_z,gyro_x,gyro_y,gyro_z,time
0.8641384840011597,-1.534671664237976,9.727710723876953,-0.013464012183248997,-0.030701398849487305,0.01733231544494629,3
0.9024457931518555,-1.5059412717819214,9.730106353759766,-0.013064318336546421,-0.03603065013885498,0.019330784678459167,15
0.8808978796005249,-1.4436919689178467,9.785171508789062,-0.01226493064314127,-0.024439513683319092,0.021196022629737854,27
0.9359645843505859,-1.5634020566940308,9.70616340637207,-0.015862174332141876,-0.001656949520111084,0.02452680468559265,39
0.912022590637207,-1.5035470724105835,9.694192886352539,-0.014796324074268341,0.02099233865737915,0.02532617747783661,51
0.8976573944091797,-1.4652397632598877,9.70855712890625,-0.015329249203205109,0.028053581714630127,0.02945636212825775,63
0.8665326833724976,-1.4460861682891846,9.756441116333008,-0.012664624489843845,0.021125614643096924,0.027457892894744873,75
0.792312502861023,-1.4436919689178467,9.75883674621582,-0.015196017920970917,0.001407325267791748,0.02519296109676361,87
0.8593500852584839,-1.4843933582305908,9.730106353759766,-0.011865236796438694,-0.015779495239257812,0.020663082599639893,99
0.8425906896591187,-1.4748165607452393,9.715740203857422,-0.013597243465483189,-0.02457273006439209,0.019597232341766357,111
0.9000515937805176,-1.491576075553894,9.739683151245117,-0.012664624489843845,-0.024039804935455322,0.018931075930595398,123
0.8928689956665039,-1.4843933582305908,9.746864318847656,-0.011865236796438694,-0.013514518737792969,0.021862179040908813,135
0.9383587837219238,-1.4724223613739014,9.675039291381836,-0.010133231058716774,0.004071950912475586,0.02519296109676361,147
0.9024457931518555,-1.4676339626312256,9.756441116333008,-0.0154624804854393,0.014197587966918945,0.023460954427719116,159
0.9215993881225586,-1.460451364517212,9.804325103759766,-0.014396630227565765,0.021125614643096924,0.025459423661231995,171
0.8449848890304565,-1.4556629657745361,9.725317001342773,-0.014396630227565765,0.014064371585845947,0.0237274169921875,183
0.8425906896591187,-1.491576075553894,9.828268051147461,-0.011865236796438694,-0.00445479154586792,0.022261857986450195,195
0.8162544965744019,-1.458057165145874,9.76601791381836,-0.012131699360907078,-0.01711183786392212,0.01746554672718048,207
0.8330138921737671,-1.481999158859253,9.859392166137695,-0.011865236796438694,-0.02856963872909546,0.018398165702819824,219
0.9311761856079102,-1.4101731777191162,9.825874328613281,-0.01612863689661026,-0.02697092294692993,0.01679939031600952,231
1.0030021667480469,-1.4748165607452393,9.70855712890625,-0.015062786638736725,-0.010583460330963135,0.02013017237186432,243
0.9048399925231934,-1.4245383739471436,9.70616340637207,-0.014796324074268341,0.01459723711013794,0.026125580072402954,255
0.878503680229187,-1.5035470724105835,9.718133926391602,-0.013464012183248997,0.021525263786315918,0.029189899563789368,267
0.8928689956665039,-1.513123869895935,9.751653671264648,-0.015329249203205109,0.02205824851989746,0.026125580072402954,279
0.8186486959457397,-1.4891818761825562,9.773200988769531,-0.011998468078672886,0.00633692741394043,0.024127110838890076,291
0.8258312940597534,-1.5442484617233276,9.718133926391602,-0.010799387469887733,-0.012848377227783203,0.022261857986450195,303
0.8593500852584839,-1.4508745670318604,9.732500076293945,-0.014263398945331573,-0.026038289070129395,0.019996926188468933,315
0.9239935874938965,-1.493970274925232,9.722923278808594,-0.01399693638086319,-0.027503788471221924,0.018931075930595398,327
0.8976573944091797,-1.5083354711532593,9.821084976196289,-0.014263398945331573,-0.01604592800140381,0.01813170313835144,339
0.9000515937805176,-1.460451364517212,9.682222366333008,-0.013064318336546421,0.0007412433624267578,0.024793267250061035,351
0.9886369705200195,-1.4317209720611572,9.768413543701172,-0.013330780901014805,0.015529870986938477,0.024926483631134033,363
0.8928689956665039,-1.5059412717819214,9.742076873779297,-0.013464012183248997,0.022990822792053223,0.02532617747783661,375
0.8641384840011597,-1.436509370803833,9.768413543701172,-0.013597243465483189,0.009401202201843262,0.02785758674144745,387
0.792312502861023,-1.4963644742965698,9.744470596313477,-0.01226493064314127,-0.001656949520111084,0.022794798016548157,400
0.813860297203064,-1.5466426610946655,9.751653671264648,-0.013197549618780613,-0.01631242036819458,0.01799847185611725,412
0.9168109893798828,-1.5274890661239624,9.801931381225586,-0.012131699360907078,-0.02537214756011963,0.01813170313835144,424
0.8425906896591187,-1.513123869895935,9.742076873779297,-0.01373047474771738,-0.01777791976928711,0.019330784678459167,436
0.9000515937805176,-1.460451364517212,9.694192886352539,-0.013197549618780613,-0.004721283912658691,0.022928014397621155,448
0.9024457931518555,-1.4269325733184814,9.627155303955078,-0.012797855772078037,0.001807093620300293,0.023860648274421692,460
0.9192051887512207,-1.4724223613739014,9.780384063720703,-0.01053292490541935,0.015663087368011475,0.02439357340335846,472
0.8808978796005249,-1.5083354711532593,9.70616340637207,-0.013064318336546421,0.015663087368011475,0.024260327219963074,484
0.8952631950378418,-1.5250948667526245,9.76362419128418,-0.01293108705431223,0.013398170471191406,0.02719143033027649,496
0.912022590637207,-1.5059412717819214,9.70376968383789,-0.01053292490541935,0.001140892505645752,0.022528335452079773,508
0.8306196928024292,-1.4341151714324951,9.749259948730469,-0.009067380800843239,-0.013914227485656738,0.018664628267288208,520
0.9215993881225586,-1.4867876768112183,9.660673141479492,-0.009999999776482582,-0.020975470542907715,0.019597232341766357,532
0.8713210821151733,-1.4269325733184814,9.682222366333008,-0.008001531474292278,-0.01631242036819458,0.01826491951942444,544
0.8737152814865112,-1.4317209720611572,9.75883674621582,-0.009333843365311623,-0.005120992660522461,0.021595701575279236,556
0.8832920789718628,-1.5179122686386108,9.742076873779297,-0.011465543881058693,0.008601844310760498,0.023194491863250732,568
0.9096283912658691,-1.515518069267273,9.744470596313477,-0.007068912498652935,0.022591114044189453,0.026392042636871338,580
0.8018893003463745,-1.4724223613739014,9.75883674621582,-0.007468606345355511,0.017261862754821777,0.023460954427719116,592
0.8042834997177124,-1.4484803676605225,9.694192886352539,-0.009600305929780006,0.007402777671813965,0.02692495286464691,604
0.8210428953170776,-1.4412977695465088,9.70616340637207,-0.006669218651950359,-0.009384393692016602,0.020663082599639893,616
0.878503680229187,-1.481999158859253,9.751653671264648,-0.010399693623185158,-0.014047443866729736,0.019597232341766357,628
0.8689268827438354,-1.493970274925232,9.785171508789062,-0.01119908131659031,-0.020042896270751953,0.021462485194206238,640
0.9359645843505859,-1.458057165145874,9.907276153564453,-0.007335375063121319,-0.013514518737792969,0.017065852880477905,652
0.8808978796005249,-1.479604959487915,9.804325103759766,-0.004404287785291672,-0.00032466650009155273,0.02239510416984558,664
0.9359645843505859,-1.4843933582305908,9.663068771362305,-0.01119908131659031,0.012865245342254639,0.024260327219963074,676
0.8425906896591187,-1.460451364517212,9.727710723876953,-0.007335375063121319,0.015796363353729248,0.02505972981452942,688
0.890474796295166,-1.4987586736679077,9.76123046875,-0.008934149518609047,0.011799395084381104,0.02719143033027649,700
0.7827357053756714,-1.4700281620025635,9.756441116333008,-0.009999999776482582,0.006736576557159424,0.02306126058101654,712
0.856955885887146,-1.4867876768112183,9.801931381225586,-0.01053292490541935,-0.008851408958435059,0.021062791347503662,724
0.8689268827438354,-1.4077789783477783,9.646308898925781,-0.009733537212014198,-0.018977046012878418,0.01826491951942444,736
0.8808978796005249,-1.393413782119751,9.684616088867188,-0.007202143780887127,-0.017378270626068115,0.01826491951942444,748
0.9503297805786133,-1.5274890661239624,9.775594711303711,-0.00986676849424839,-0.007519125938415527,0.021329239010810852,760
0.933570384979248,-1.491576075553894,9.768413543701172,-0.00840122438967228,7.50422477722168e-05,0.021462485194206238,772
0.8665326833724976,-1.5227006673812866,9.720529556274414,-0.010799387469887733,0.010733544826507568,0.024793267250061035,785
0.8928689956665039,-1.5059412717819214,9.70376968383789,-0.00986676849424839,0.01060032844543457,0.02306126058101654,797
0.8617442846298218,-1.4508745670318604,9.70616340637207,-0.012664624489843845,0.004338443279266357,0.021595701575279236,809
0.8330138921737671,-1.4987586736679077,9.689403533935547,-0.00920061208307743,-0.002722799777984619,0.019730478525161743,821
0.9000515937805176,-1.4412977695465088,9.780384063720703,-0.012664624489843845,-0.011382818222045898,0.021862179040908813,833
0.9455413818359375,-1.5035470724105835,9.605607986450195,-0.012797855772078037,-0.018310844898223877,0.021196022629737854,845
0.8234370946884155,-1.5274890661239624,9.660673141479492,-0.01053292490541935,-0.007119417190551758,0.019730478525161743,857
0.9263877868652344,-1.4772107601165771,9.76601791381836,-0.013197549618780613,-0.004588007926940918,0.021862179040908813,869
0.8928689956665039,-1.4532687664031982,9.70616340637207,-0.009067380800843239,0.00593721866607666,0.025459423661231995,881
0.8449848890304565,-1.4293267726898193,9.710952758789062,-0.01399693638086319,0.00953441858291626,0.0237274169921875,893
0.9192051887512207,-1.491576075553894,9.756441116333008,-0.011732006445527077,0.007402777671813965,0.02532617747783661,905
0.890474796295166,-1.4748165607452393,9.76601791381836,-0.013863706029951572,0.001140892505645752,0.02199539542198181,917
0.8401964902877808,-1.4532687664031982,9.701375961303711,-0.011465543881058693,-0.01524651050567627,0.02199539542198181,929
0.9000515937805176,-1.4628455638885498,9.69179916381836,-0.011865236796438694,-0.01950991153717041,0.019730478525161743,941
0.9144167900085449,-1.558613657951355,9.75883674621582,-0.012797855772078037,-0.020575761795043945,0.020263388752937317,953
0.8593500852584839,-1.4460861682891846,9.76601791381836,-0.013064318336546421,-0.0095176100730896,0.01813170313835144,965
0.878503680229187,-1.4724223613739014,9.730106353759766,-0.013863706029951572,0.0052710771560668945,0.02399386465549469,977
0.8449848890304565,-1.458057165145874,9.682222366333008,-0.010266462340950966,0.017794787883758545,0.024926483631134033,989
0.8401964902877808,-1.5035470724105835,9.655885696411133,-0.008001531474292278,0.017794787883758545,0.02585911750793457,1001
0.878503680229187,-1.4508745670318604,9.698980331420898,-0.0077350689098238945,0.009934186935424805,0.021862179040908813,1013
0.8737152814865112,-1.4700281620025635,9.663068771362305,-0.009067380800843239,-0.0031225085258483887,0.022528335452079773,1025
0.835408091545105,-1.460451364517212,9.780384063720703,-0.00840122438967228,-0.018977046012878418,0.01733231544494629,1037
0.9144167900085449,-1.460451364517212,9.70616340637207,-0.010399693623185158,-0.02710413932800293,0.01799847185611725,1049
0.9718775749206543,-1.458057165145874,9.670249938964844,-0.011065850034356117,-0.016578853130340576,0.0187978595495224,1061
0.890474796295166,-1.4724223613739014,9.773200988769531,-0.01226493064314127,0.002339959144592285,0.0237274169921875,1073
0.9287819862365723,-1.4053847789764404,9.751653671264648,-0.011065850034356117,0.01699542999267578,0.02652527391910553,1085
0.8808978796005249,-1.4436919689178467,9.770807266235352,-0.010799387469887733,0.026588082313537598,0.028390511870384216,1097
0.8162544965744019,-1.458057165145874,9.780384063720703,-0.009999999776482582,0.01712864637374878,0.02505972981452942,1109
0.7755531072616577,-1.4628455638885498,9.694192886352539,-0.013064318336546421,-0.002722799777984619,0.0237274169921875,1121
0.8378022909164429,-1.4652397632598877,9.81629753112793,-0.010799387469887733,-0.01844412088394165,0.020529866218566895,1133
0.9000515937805176,-1.412567377090454,9.789960861206055,-0.012131699360907078,-0.026571214199066162,0.01746554672718048,1145
0.8737152814865112,-1.5035470724105835,9.710952758789062,-0.01293108705431223,-0.020442545413970947,0.019197553396224976,1157
0.8641384840011597,-1.4867876768112183,9.675039291381836,-0.013064318336546421,-0.008185267448425293,0.021462485194206238,1169
0.8330138921737671,-1.4245383739471436,9.698980331420898,-0.014396630227565765,0.0102006196975708,0.023594170808792114,1181
0.9311761856079102,-1.4556629657745361,9.794748306274414,-0.015728943049907684,0.02312403917312622,0.028124049305915833,1193
0.9000515937805176,-1.4508745670318604,9.710952758789062,-0.016528330743312836,0.02099233865737915,0.02719143033027649,1205
0.8282254934310913,-1.4269325733184814,9.76601791381836,-0.011732006445527077,0.007935702800750732,0.025592640042304993,1217
0.8162544965744019,-1.4556629657745361,9.648702621459961,-0.009733537212014198,-0.011382818222045898,0.020663082599639893,1229
0.8401964902877808,-1.4867876768112183,9.828268051147461,-0.010399693623185158,-0.02630472183227539,0.020529866218566895,1241
0.890474796295166,-1.5227006673812866,9.737287521362305,-0.00920061208307743,-0.027637004852294922,0.01679939031600952,1253
0.8737152814865112,-1.438903570175171,9.70616340637207,-0.011598775163292885,-0.01564621925354004,0.0187978595495224,1265
0.9072341918945312,-1.4676339626312256,9.81629753112793,-0.013197549618780613,0.0006079673767089844,0.023460954427719116,1277
0.9072341918945312,-1.4867876768112183,9.785171508789062,-0.011865236796438694,0.020326197147369385,0.028124049305915833,1289
0.8761094808578491,-1.4628455638885498,9.715740203857422,-0.010666156187653542,0.02365696430206299,0.02505972981452942,1301
0.9144167900085449,-1.4628455638885498,9.732500076293945,-0.012131699360907078,0.01459723711013794,0.024793267250061035,1313
0.7851299047470093,-1.493970274925232,9.732500076293945,-0.007468606345355511,-0.0033889412879943848,0.020529866218566895,1325
0.8425906896591187,-1.4532687664031982,9.658279418945312,-0.009333843365311623,-0.012315452098846436,0.019064322113990784,1337
0.8330138921737671,-1.4341151714324951,9.675039291381836,-0.011465543881058693,-0.020575761795043945,0.015866771340370178,1349
0.8306196928024292,-1.5035470724105835,9.722923278808594,-0.014929555356502533,-0.012715160846710205,0.020529866218566895,1361
0.9168109893798828,-1.460451364517212,9.732500076293945,-0.011865236796438694,0.0008744597434997559,0.021462485194206238,1373
0.9048399925231934,-1.4173557758331299,9.70855712890625,-0.01119908131659031,0.011666178703308105,0.02585911750793457,1385
0.8856862783432007,-1.4197499752044678,9.789960861206055,-0.010666156187653542,0.0137978196144104,0.02785758674144745,1397
0.8545616865158081,-1.493970274925232,9.809114456176758,-0.008001531474292278,0.004205167293548584,0.02199539542198181,1409
0.8665326833724976,-1.4508745670318604,9.742076873779297,-0.01226493064314127,-0.0033889412879943848,0.021462485194206238,1421
0.8593500852584839,-1.5227006673812866,9.773200988769531,-0.009733537212014198,-0.014846861362457275,0.02013017237186432,1433
0.912022590637207,-1.4460861682891846,9.799537658691406,-0.01053292490541935,-0.01631242036819458,0.019730478525161743,1445
0.8952631950378418,-1.4724223613739014,9.739683151245117,-0.011998468078672886,-0.007519125938415527,0.020663082599639893,1457
0.8832920789718628,-1.4843933582305908,9.694192886352539,-0.007068912498652935,0.0030061006546020508,0.02439357340335846,1469
0.8880805969238281,-1.481999158859253,9.687009811401367,-0.009600305929780006,0.010067403316497803,0.025459423661231995,1481
0.890474796295166,-1.4891818761825562,9.715740203857422,-0.011465543881058693,0.018061280250549316,0.023860648274421692,1493
0.8042834997177124,-1.481999158859253,9.75883674621582,-0.010399693623185158,0.010467112064361572,0.02532617747783661,1505
0.8473790884017944,-1.491576075553894,9.730106353759766,-0.008267993107438087,-0.0032557249069213867,0.021196022629737854,1517
0.8593500852584839,-1.4676339626312256,9.809114456176758,-0.011465543881058693,-0.019776463508605957,0.019064322113990784,1529
0.8737152814865112,-1.4676339626312256,9.727710723876953,-0.009067380800843239,-0.02070903778076172,0.01826491951942444,1541
0.9814543724060059,-1.493970274925232,9.732500076293945,-0.010399693623185158,-0.010716676712036133,0.02079632878303528,1554
0.8665326833724976,-1.5011528730392456,9.806720733642578,-0.011732006445527077,-0.0005910992622375488,0.021196022629737854,1566
0.8641384840011597,-1.4317209720611572,9.75883674621582,-0.01293108705431223,0.011666178703308105,0.024793267250061035,1578
0.8449848890304565,-1.4748165607452393,9.70855712890625,-0.011865236796438694,0.01792806386947632,0.022928014397621155,1590
0.9551181793212891,-1.5083354711532593,9.754047393798828,-0.009333843365311623,0.011266469955444336,0.02505972981452942,1602
0.7611877918243408,-1.4484803676605225,9.749259948730469,-0.010799387469887733,0.0003414750099182129,0.021862179040908813,1614
0.8401964902877808,-1.4556629657745361,9.672645568847656,-0.011065850034356117,-0.01524651050567627,0.020663082599639893,1626
0.9000515937805176,-1.5107296705245972,9.746864318847656,-0.011865236796438694,-0.02523893117904663,0.020929545164108276,1638
0.9048399925231934,-1.513123869895935,9.696586608886719,-0.012131699360907078,-0.01697850227355957,0.019064322113990784,1650
0.8473790884017944,-1.5274890661239624,9.722923278808594,-0.010932618752121925,-0.0029892921447753906,0.021196022629737854,1662
0.9024457931518555,-1.481999158859253,9.754047393798828,-0.010666156187653542,0.01273202896118164,0.025592640042304993,1674
0.8737152814865112,-1.5107296705245972,9.744470596313477,-0.011732006445527077,0.02019292116165161,0.02452680468559265,1686
0.8330138921737671,-1.4556629657745361,9.773200988769531,-0.013197549618780613,0.017661571502685547,0.02585911750793457,1698
0.8306196928024292,-1.5035470724105835,9.811508178710938,-0.010799387469887733,0.006203711032867432,0.0237274169921875,1710
0.7875241041183472,-1.4724223613739014,9.794748306274414,-0.01226493064314127,-0.00871819257736206,0.02079632878303528,1722
0.8330138921737671,-1.4772107601165771,9.737287521362305,-0.012398161925375462,-0.01764470338821411,0.01799847185611725,1734
0.9215993881225586,-1.4843933582305908,9.675039291381836,-0.013863706029951572,-0.021641671657562256,0.020263388752937317,1746
0.8713210821151733,-1.4867876768112183,9.63912582397461,-0.014529861509799957,-0.009917259216308594,0.019730478525161743,1758
0.9024457931518555,-1.479604959487915,9.727710723876953,-0.013464012183248997,0.0084686279296875,0.024260327219963074,1770
0.8952631950378418,-1.534671664237976,9.787567138671875,-0.016261868178844452,0.0102006196975708,0.02466002106666565,1782
0.8449848890304565,-1.5179122686386108,9.770807266235352,-0.014130167663097382,0.01246553659439087,0.02399386465549469,1794
0.8593500852584839,-1.4628455638885498,9.787567138671875,-0.015329249203205109,0.002073526382446289,0.022794798016548157,1806
0.8497732877731323,-1.5035470724105835,9.801931381225586,-0.015995405614376068,-0.010450243949890137,0.022794798016548157,1818
0.8186486959457397,-1.4341151714324951,9.746864318847656,-0.016661562025547028,-0.01338130235671997,0.021196022629737854,1830
0.8761094808578491,-1.4532687664031982,9.81869125366211,-0.01053292490541935,-0.010983169078826904,0.020663082599639893,1842
0.8880805969238281,-1.4867876768112183,9.792354583740234,-0.009999999776482582,-0.007652401924133301,0.020263388752937317,1854
0.8832920789718628,-1.4412977695465088,9.754047393798828,-0.009333843365311623,0.008601844310760498,0.023194491863250732,1866
0.890474796295166,-1.4269325733184814,9.624761581420898,-0.011998468078672886,0.011532962322235107,0.024260327219963074,1878
0.8737152814865112,-1.4460861682891846,9.687009811401367,-0.00840122438967228,0.011799395084381104,0.024260327219963074,1890
0.8306196928024292,-1.4412977695465088,9.742076873779297,-0.012131699360907078,0.001540541648864746,0.02266155183315277,1902
0.8306196928024292,-1.4843933582305908,9.754047393798828,-0.010666156187653542,-0.00698620080947876,0.019597232341766357,1914
0.9407529830932617,-1.458057165145874,9.646308898925781,-0.007868300192058086,-0.013248085975646973,0.021062791347503662,1926
0.8641384840011597,-1.4724223613739014,9.799537658691406,-0.012131699360907078,-0.0112496018409729,0.021462485194206238,1938
0.8330138921737671,-1.4867876768112183,9.775594711303711,-0.010799387469887733,-0.0048545002937316895,0.021196022629737854,1950
0.9000515937805176,-1.4484803676605225,9.730106353759766,-0.010133231058716774,0.0032725930213928223,0.023194491863250732,1962
0.8928689956665039,-1.460451364517212,9.722923278808594,-0.012531393207609653,0.009134769439697266,0.021329239010810852,1974
0.8808978796005249,-1.460451364517212,9.732500076293945,-0.011598775163292885,0.00633692741394043,0.02466002106666565,1986
0.8617442846298218,-1.4772107601165771,9.756441116333008,-0.010932618752121925,0.003938734531402588,0.021462485194206238,1998
0.8737152814865112,-1.537065863609314,9.81869125366211,-0.00840122438967228,-0.003921926021575928,0.020396634936332703,2010
0.8210428953170776,-1.436509370803833,9.76123046875,-0.010932618752121925,-0.009650826454162598,0.021196022629737854,2022
0.890474796295166,-1.4963644742965698,9.701375961303711,-0.005869831424206495,-0.0005910992622375488,0.0237274169921875,2034
0.8521674871444702,-1.5107296705245972,9.737287521362305,-0.01053292490541935,0.0024732351303100586,0.021062791347503662,2046
0.856955885887146,-1.493970274925232,9.720529556274414,-0.010133231058716774,0.0034058690071105957,0.02452680468559265,2058
0.9144167900085449,-1.4341151714324951,9.710952758789062,-0.011332312598824501,0.0016738176345825195,0.02519296109676361,2070
0.878503680229187,-1.4748165607452393,9.694192886352539,-0.010799387469887733,-0.008185267448425293,0.021196022629737854,2082
0.9455413818359375,-1.5011528730392456,9.742076873779297,-0.008800918236374855,-0.010583460330963135,0.02199539542198181,2094
0.8737152814865112,-1.4867876768112183,9.725317001342773,-0.010266462340950966,-0.003522157669067383,0.020929545164108276,2106
0.8713210821151733,-1.4748165607452393,9.727710723876953,-0.009467074647545815,0.001407325267791748,0.023594170808792114,2118
0.8497732877731323,-1.4772107601165771,9.732500076293945,-0.010799387469887733,0.010333836078643799,0.02505972981452942,2130
0.890474796295166,-1.4436919689178467,9.76362419128418,-0.01119908131659031,0.006603360176086426,0.02266155183315277,2142
0.8880805969238281,-1.4987586736679077,9.789960861206055,-0.008934149518609047,0.002206742763519287,0.02519296109676361,2154
0.8808978796005249,-1.460451364517212,9.742076873779297,-0.009067380800843239,-0.006453335285186768,0.023460954427719116,2166
0.9407529830932617,-1.460451364517212,9.754047393798828,-0.010399693623185158,-0.018843770027160645,0.01600000262260437,2178
0.9072341918945312,-1.4508745670318604,9.732500076293945,-0.009733537212014198,-0.009650826454162598,0.022528335452079773,2190
0.8952631950378418,-1.493970274925232,9.722923278808594,-0.010932618752121925,-0.00032466650009155273,0.02266155183315277,2202
0.8880805969238281,-1.4987586736679077,9.739683151245117,-0.01119908131659031,0.013931095600128174,0.026258796453475952,2214
0.9096283912658691,-1.4748165607452393,9.65109634399414,-0.01293108705431223,0.02019292116165161,0.024127110838890076,2226
0.8018893003463745,-1.4508745670318604,9.773200988769531,-0.011598775163292885,0.012865245342254639,0.021329239010810852,2238
0.8449848890304565,-1.4532687664031982,9.70376968383789,-0.00920061208307743,-0.005120992660522461,0.023194491863250732,2250
0.813860297203064,-1.4484803676605225,9.75883674621582,-0.012398161925375462,-0.01950991153717041,0.01826491951942444,2262
0.9287819862365723,-1.4772107601165771,9.746864318847656,-0.010133231058716774,-0.023640096187591553,0.01746554672718048,2274
0.9431471824645996,-1.4867876768112183,9.715740203857422,-0.010133231058716774,-0.01591271162033081,0.019730478525161743,2286
0.9431471824645996,-1.481999158859253,9.768413543701172,-0.011465543881058693,-0.002722799777984619,0.019730478525161743,2298
0.9096283912658691,-1.5011528730392456,9.720529556274414,-0.008667686954140663,0.01952683925628662,0.02585911750793457,2310
0.8545616865158081,-1.391019582748413,9.720529556274414,-0.013597243465483189,0.03604745864868164,0.02719143033027649,2322
0.8378022909164429,-1.515518069267273,9.660673141479492,-0.010799387469887733,0.021525263786315918,0.027724355459213257,2334
0.7635819911956787,-1.4341151714324951,9.682222366333008,-0.010799387469887733,0.0027396678924560547,0.02399386465549469,2346
0.8282254934310913,-1.438903570175171,9.70855712890625,-0.011065850034356117,-0.020575761795043945,0.01813170313835144,2358
0.9168109893798828,-1.479604959487915,9.57687759399414,-0.009999999776482582,-0.03842872381210327,0.015200614929199219,2370
0.8808978796005249,-1.4101731777191162,9.773200988769531,-0.008667686954140663,-0.04375797510147095,0.014401227235794067,2382
0.9503297805786133,-1.5538252592086792,9.773200988769531,-0.012664624489843845,-0.021241962909698486,0.016532927751541138,2394
0.9623007774353027,-1.4891818761825562,9.658279418945312,-0.012398161925375462,0.014730453491210938,0.02452680468559265,2406
0.878503680229187,-1.4221441745758057,9.777990341186523,-0.011998468078672886,0.043375253677368164,0.03078867495059967,2418
0.8282254934310913,-1.515518069267273,9.797143936157227,-0.011332312598824501,0.051502346992492676,0.030522212386131287,2430
0.8042834997177124,-1.4748165607452393,9.751653671264648,-0.011065850034356117,0.026588082313537598,0.028523743152618408,2442
0.7851299047470093,-1.5227006673812866,9.749259948730469,-0.010666156187653542,-0.008851408958435059,0.0187978595495224,2454
0.8306196928024292,-1.4724223613739014,9.63912582397461,-0.010666156187653542,-0.047621726989746094,0.01666615903377533,2466
0.8497732877731323,-1.5298832654953003,9.694192886352539,-0.01226493064314127,-0.061611056327819824,0.012136295437812805,2478
0.9072341918945312,-1.4628455638885498,9.75883674621582,-0.011332312598824501,-0.04282546043395996,0.01679939031600952,2490
0.9359645843505859,-1.4628455638885498,9.694192886352539,-0.011732006445527077,-0.008451759815216064,0.021595701575279236,2502
0.9407529830932617,-1.4460861682891846,9.756441116333008,-0.01119908131659031,0.030185341835021973,0.03012251853942871,2514
0.8880805969238281,-1.4341151714324951,9.785171508789062,-0.009600305929780006,0.04923737049102783,0.029989272356033325,2526
0.8665326833724976,-1.481999158859253,9.746864318847656,-0.011865236796438694,0.04683917760848999,0.0303889662027359,2538
0.8401964902877808,-1.4772107601165771,9.756441116333008,-0.011732006445527077,0.02379024028778076,0.02532617747783661,2550
0.8042834997177124,-1.481999158859253,9.730106353759766,-0.012131699360907078,-0.016445636749267578,0.019730478525161743,2562
0.8497732877731323,-1.4772107601165771,9.811508178710938,-0.00986676849424839,-0.04349154233932495,0.013335376977920532,2574
0.8617442846298218,-1.4963644742965698,9.69179916381836,-0.01053292490541935,-0.057347655296325684,0.014001533389091492,2586
0.9623007774353027,-1.479604959487915,9.722923278808594,-0.008534455671906471,-0.038961708545684814,0.016532927751541138,2598
0.9886369705200195,-1.438903570175171,9.70376968383789,-0.012131699360907078,-0.001523733139038086,0.02266155183315277,2610
0.9742717742919922,-1.4221441745758057,9.698980331420898,-0.012131699360907078,0.03991121053695679,0.027724355459213257,2622
0.9072341918945312,-1.491576075553894,9.663068771362305,-0.013064318336546421,0.05390042066574097,0.03345330059528351,2634
0.8425906896591187,-1.479604959487915,9.742076873779297,-0.01226493064314127,0.04524046182632446,0.03478561341762543,2646
0.7899183034896851,-1.4436919689178467,9.809114456176758,-0.013464012183248997,0.013398170471191406,0.02452680468559265,2658
