accel_x,accel_y,accel_z,gyro_x,gyro_y,gyro_z,time
0.5552865266799927,3.071772575378418,2.667210578918457,0.6192511916160583,-0.6327732801437378,0.22224195301532745,34
3.1362357139587402,-1.1324458122253418,7.900935649871826,0.5563660264015198,-0.3620474338531494,0.4669877290725708,46
-1.1948750019073486,0.1580289900302887,0.0647134780883789,0.4886845350265503,-0.3637794852256775,0.6633706092834473,59
-0.6992752552032471,0.8020692467689514,12.933547973632812,0.17319294810295105,-0.30529093742370605,0.7780826687812805,72
1.156231164932251,4.139586448669434,1.3695534467697144,0.11577028781175613,-0.3799004554748535,0.7802144289016724,84
2.528108596801758,1.8746715784072876,20.632701873779297,-0.15948544442653656,-0.2769126892089844,0.7780826687812805,97
-1.309796690940857,1.7693266868591309,15.54083251953125,-0.2559448778629303,0.046572744846343994,0.8023307919502258,109
1.9223755598068237,2.894601583480835,6.897765159606934,-0.33455127477645874,0.4827718138694763,0.8265788555145264,121
0.5074024200439453,1.7836918830871582,7.654333114624023,-0.415555864572525,0.5183445811271667,0.7912725806236267,133
0.8330138921737671,0.8379822969436646,13.002979278564453,-0.5674394965171814,0.24228942394256592,0.6834884881973267,146
1.2927006483078003,1.2617559432983398,9.83305549621582,-0.6365865468978882,0.1747412085533142,0.5417304635047913,158
1.3693150281906128,1.357524037361145,8.609619140625,-0.6587029099464417,0.2490842044353485,0.43634456396102905,170
1.3142484426498413,0.8954431414604187,9.739683151245117,-0.6439142227172852,0.38324809074401855,0.3613353669643402,182
1.1658079624176025,0.23224924504756927,10.206552505493164,-0.6341883540153503,0.4166891276836395,0.28526031970977783,194
0.3924807608127594,-3.821134090423584,20.632701873779297,-0.5200091600418091,0.09573507308959961,0.1325773298740387,206
2.343755006790161,0.8667126893997192,5.480397701263428,-0.418886661529541,0.3411470055580139,-0.15533536672592163,218
-0.5077390670776367,0.21788403391838074,12.519350051879883,-0.3945053517818451,-0.07426798343658447,-0.2988254129886627,230
1.3836803436279297,0.4094201922416687,11.446748733520508,0.026771822944283485,0.05070292949676514,-0.4263277053833008,243
1.3908629417419434,-0.47404026985168457,8.930442810058594,-0.047038279473781586,-0.007385909557342529,-0.4204655885696411,255
1.1921441555023193,-0.9385153651237488,9.81869125366211,-0.015862174332141876,-0.0906553864479065,-0.35411638021469116,267
1.3262194395065308,-1.0223125219345093,8.544975280761719,0.09565237909555435,-0.04389125108718872,-0.3124150037765503,279
1.2950948476791382,-1.3096166849136353,9.430830001831055,0.14681315422058105,-0.12729406356811523,-0.26018837094306946,291
1.4124107360839844,-1.295251488685608,9.540964126586914,0.12882694602012634,-0.19684070348739624,-0.18131545186042786,303
1.4579005241394043,-1.5873440504074097,9.742076873779297,0.06221133470535278,-0.2830413579940796,-0.08045941591262817,315
1.3381904363632202,-1.9943584203720093,10.280771255493164,-0.00813476275652647,-0.2984961271286011,0.010137826204299927,327
1.1035586595535278,-2.0709726810455322,9.981496810913086,-0.08234456181526184,-0.24946707487106323,0.04437825083732605,339
1.220874547958374,-1.6208629608154297,9.897699356079102,-0.1453629434108734,-0.1495436429977417,0.07675344496965408,351
1.2400281429290771,-1.4029905796051025,10.30471420288086,-0.20891425013542175,-0.03709644079208374,0.09247472882270813,363
1.3549498319625854,-1.5418542623519897,9.854604721069336,-0.25527870655059814,0.13264012336730957,0.12151914089918137,375
0.5217676162719727,-1.438903570175171,1.987257480621338,0.03996171057224274,0.30131086707115173,0.06622817367315292,387
1.3741034269332886,-1.558613657951355,9.914459228515625,-0.059562020003795624,0.2903859317302704,-0.033162325620651245,399
0.6175357103347778,-2.3463058471679688,11.978261947631836,-0.08314394950866699,-0.14714545011520386,-0.13201990723609924,411
0.8258312940597534,-2.674311637878418,9.684616088867188,0.026105666533112526,-0.1645987629890442,-0.24833077192306519,423
0.0213795006275177,-4.2520904541015625,8.21218204498291,0.3735727369785309,0.18939664959907532,-0.5159923434257507,436
-0.03368714451789856,-2.1044914722442627,9.033393859863281,0.6592205166816711,0.1746079921722412,-0.7515451312065125,448
1.6422539949417114,-5.386941909790039,-4.647075653076172,0.09538591653108597,0.04763859510421753,-0.5033353567123413,460
1.8864625692367554,-7.556088924407959,16.457813262939453,0.1393522173166275,0.06042879819869995,-0.3254716992378235,472
0.6103531122207642,-5.449191093444824,11.054100036621094,0.2825758159160614,0.5356646180152893,-0.3926202058792114,484
-0.24916529655456543,-3.845076084136963,9.363792419433594,0.30362632870674133,0.29758042097091675,-0.6181806921958923,496
-1.7192051410675049,-3.1459693908691406,15.804195404052734,0.3711746037006378,0.1980566680431366,-0.830950915813446,508
1.7787235975265503,-2.5091116428375244,8.643138885498047,0.44285300374031067,0.014863669872283936,-0.8911715149879456,520
-1.7335703372955322,-3.7876152992248535,4.249777793884277,0.6168529987335205,0.1619510054588318,-1.116732120513916,532
0.7947067022323608,1.8531237840652466,-11.671663284301758,0.5525023341178894,0.1782052218914032,-1.153637170791626,544
-6.756605625152588,5.269649505615234,20.26459312438965,0.7973812818527222,-0.592537522315979,-1.1528377532958984,556
-11.506701469421387,-13.917482376098633,12.234439849853516,1.2254533767700195,-0.30662328004837036,-1.2559585571289062,568
11.520730972290039,3.5721607208251953,20.632701873779297,1.1082098484039307,-0.6656814813613892,-1.1988024711608887,580
-20.0132999420166,-11.393994331359863,-14.345987319946289,1.6980245113372803,-0.3376661539077759,-1.0477182865142822,592
-3.6249897480010986,-3.265679359436035,20.632701873779297,1.4724640846252441,-1.7808269262313843,-0.8619938492774963,604
-4.76462984085083,-1.3646833896636963,20.632701873779297,1.5489387512207031,-0.9691822528839111,-0.8272204995155334,616
-3.5004913806915283,-0.7781038284301758,-3.4810991287231445,1.6736432313919067,-0.30555737018585205,-0.6737381219863892,628
-0.7711012363433838,1.4700515270233154,20.632701873779297,1.7089494466781616,-1.3402312994003296,-0.5876707434654236,640
8.700361251831055,3.9193198680877686,-11.396329879760742,1.7395926713943481,-0.8042418956756592,-0.2131577432155609,652
7.407491683959961,-1.3551064729690552,-4.56088399887085,1.9267826080322266,-0.31821441650390625,0.09833690524101257,664
7.400309085845947,-3.0406243801116943,-4.24245548248291,1.8702925443649292,-0.45637524127960205,0.4799111783504486,676
1.5919758081436157,-1.8794366121292114,-1.9966940879821777,2.0538852214813232,-0.6089249849319458,0.5607825517654419,688
-3.4550013542175293,-1.5657962560653687,11.171415328979492,1.9024012088775635,-1.1513092517852783,0.5577182173728943,700
2.262352228164673,-3.514676332473755,-0.610451340675354,1.9804747104644775,-1.3043920993804932,0.6078131198883057,712
5.820136070251465,0.4573041796684265,1.3815244436264038,1.9029340744018555,-1.4697319269180298,0.691748857498169,724
-1.0177040100097656,-9.10513687133789,-1.3119525909423828,1.45980703830719,-1.3827320337295532,0.785810112953186,736
-1.130231499671936,-1.3551064729690552,4.32639217376709,1.5969020128250122,-1.6425329446792603,0.6100780963897705,748
19.21270179748535,-15.057123184204102,-18.593299865722656,-1.6067763566970825,-3.7457213401794434,-4.175721168518066,760
-4.3240966796875,-5.121185779571533,7.991915225982666,0.3830321431159973,-0.7041853666305542,-3.1439785957336426,772
1.0867992639541626,-1.0103415250778198,10.144302368164062,-0.04277488589286804,-0.8527380228042603,-3.157834529876709,784
-0.3305681645870209,0.4573041796684265,9.615184783935547,-0.3153659999370575,-1.1458468437194824,-3.1061408519744873,796
4.460229396820068,-0.5626257061958313,6.294426441192627,0.13349004089832306,0.47704288363456726,-2.9976906776428223,808
9.416227340698242,-4.8697943687438965,-18.593299865722656,-1.5573475360870361,4.249752044677734,-1.9271776676177979,821
-0.660968005657196,-0.9983704686164856,0.7111479640007019,-0.9652680158615112,1.9060810804367065,-1.7367901802062988,833
-6.335226058959961,-2.11885666847229,5.102113723754883,-3.0310182571411133,-0.5123323202133179,0.5566523671150208,845
6.272640228271484,2.631239414215088,10.311897277832031,-3.0824456214904785,-1.481056571006775,0.671097993850708,857
0.030956298112869263,-0.07660277187824249,0.09344393014907837,-3.7154271602630615,-1.5831116437911987,2.258681535720825,869
-0.4359130263328552,0.524341881275177,1.257025957107544,-3.286689281463623,-0.7470858097076416,3.0927090644836426,881
-20.0132999420166,-5.039783000946045,20.632701873779297,4.355587959289551,0.43920522928237915,2.25321888923645,893
-6.751817226409912,3.2106361389160156,-1.3622307777404785,1.5213598012924194,-0.889243483543396,4.009206771850586,905
2.1354594230651855,-0.9097849726676941,-2.674253225326538,2.6413018703460693,-0.1579371690750122,4.053972244262695,917
4.934281349182129,1.21626615524292,-2.631157636642456,2.2602603435516357,0.3689923584461212,4.146834850311279,929
2.3317840099334717,18.940542221069336,20.632701873779297,1.2457044124603271,4.985588073730469,4.555588245391846,941
19.21270179748535,9.497810363769531,20.632701873779297,-0.3132342994213104,4.516480922698975,4.555588245391846,953
19.21270179748535,8.98305606842041,16.14896011352539,0.2300826907157898,4.985588073730469,4.555588245391846,965
8.384325981140137,10.24719524383545,-2.657493829727173,2.1546080112457275,4.985588073730469,4.555588245391846,977
-10.771681785583496,-0.24180267751216888,11.22408676147461,3.7812280654907227,4.985588073730469,1.025626301765442,989
-12.995894432067871,6.981503963470459,3.555459499359131,3.5550014972686768,4.985588073730469,1.3194012641906738,1001
3.8616790771484375,5.439638137817383,-6.629474639892578,2.989168405532837,1.021159291267395,-0.6103200316429138,1013
1.4387469291687012,-0.4237620234489441,-2.145134687423706,2.832888126373291,1.725019931793213,-0.9580535292625427,1025
-0.38324058055877686,0.13887538015842438,-0.14118778705596924,2.832488536834717,1.9517794847488403,-0.8476049304008484,1037
-18.232013702392578,2.559413433074951,12.641454696655273,2.9786434173583984,0.39190810918807983,1.7520031929016113,1049
-1.5228805541992188,-0.667970597743988,1.357582449913025,2.213496208190918,-0.5311179161071777,2.43121600151062,1061
10.64924144744873,1.4485036134719849,2.2769558429718018,1.8380506038665771,-1.5777825117111206,3.3357229232788086,1073
-7.412616729736328,19.78270149230957,9.560117721557617,0.769935667514801,-2.9299464225769043,4.295387268066406,1085
0.9886369705200195,4.8506646156311035,2.3918776512145996,-0.14602909982204437,-3.526689052581787,4.555588245391846,1097
1.9726539850234985,3.445267915725708,20.348390579223633,-1.6340888738632202,-3.4695329666137695,4.555588245391846,1109
9.167230606079102,-1.391019582748413,-7.6805291175842285,-3.063793182373047,-3.7457213401794434,4.555588245391846,1121
5.334113121032715,-0.30405193567276,-6.392448425292969,-0.1950581967830658,1.6312251091003418,0.28472739458084106,1133
-8.015955924987793,4.156345844268799,5.571377277374268,0.12762786448001862,2.758228302001953,0.7131990790367126,1145
-2.116642713546753,1.1444400548934937,-3.0381717681884766,-0.015329249203205109,2.0036063194274902,0.10033537447452545,1157
-7.652037143707275,2.0015642642974854,20.632701873779297,-0.7394409775733948,0.41775497794151306,0.5286738276481628,1169
4.400374412536621,-1.558613657951355,-1.5226421356201172,-0.8470919132232666,-0.8430122137069702,0.5284073352813721,1181
1.3477672338485718,5.791585445404053,20.632701873779297,-1.7265512943267822,-1.9081960916519165,0.64085453748703,1193
-2.0136919021606445,1.501176118850708,5.501945495605469,-1.445166826248169,-3.416640281677246,1.0504074096679688,1205
-2.3249382972717285,3.2178187370300293,7.970367431640625,-1.6366201639175415,-3.7457213401794434,1.3071439266204834,1217
-3.598653554916382,1.379071831703186,16.32852554321289,-2.11838436126709,-2.6482954025268555,0.5926247835159302,1229
-4.06552267074585,1.204295039176941,14.688497543334961,-1.7386752367019653,-2.5066704750061035,-0.250728964805603,1241
-4.7981486320495605,-1.9440802335739136,18.51922035217285,-2.8936569690704346,-3.7457213401794434,-0.5874043107032776,1253
1.6925324201583862,2.5785670280456543,6.8115739822387695,-2.0015406608581543,-3.110074996948242,-1.5583937168121338,1265
-17.247997283935547,1.642434000968933,15.526468276977539,-1.0388115644454956,-1.4580076932907104,-1.5394747257232666,1277
5.858443260192871,-3.222583770751953,19.90306854248047,-0.9632695317268372,-1.9793416261672974,-0.25858956575393677,1289
-7.321637153625488,0.22267243266105652,14.863273620605469,-1.109157681465149,-0.7049846649169922,0.10300000011920929,1301
17.501445770263672,-2.4157378673553467,-8.954244613647461,-0.2564777731895447,0.02538895606994629,0.5513231158256531,1313
-7.33121395111084,-0.25377368927001953,11.868127822875977,0.4379234313964844,-0.8604655265808105,0.5836982727050781,1325
-6.435782432556152,-1.9464744329452515,8.48272705078125,1.0056216716766357,0.40309953689575195,0.5687763690948486,1337
7.033996105194092,1.7765092849731445,-1.5106711387634277,1.595702886581421,1.7696523666381836,0.6401883363723755,1349
4.1034932136535645,1.6400398015975952,4.357517242431641,2.295300245285034,2.529869794845581,0.48257580399513245,1361
19.21270179748535,0.8834721446037292,20.632701873779297,2.12276554107666,1.927264928817749,0.6357917189598083,1373
15.988311767578125,-2.336729049682617,2.9473323822021484,0.9816401600837708,2.4006357192993164,2.5688438415527344,1385
17.771991729736328,-4.321522235870361,16.49612045288086,0.7458208203315735,2.1533584594726562,3.2491226196289062,1397
2.4969840049743652,3.4763925075531006,7.795590877532959,0.744488537311554,1.292151689529419,3.4185924530029297,1409
-0.26831889152526855,5.169093132019043,4.1157026290893555,0.14321590960025787,2.0571653842926025,3.8114917278289795,1421
5.9374518394470215,16.287765502929688,20.632701873779297,0.5678238868713379,4.985588073730469,1.4115972518920898,1433
10.184765815734863,-0.3830605745315552,-7.287879467010498,0.0061209797859191895,4.985588073730469,1.9293336868286133,1445
-16.024560928344727,6.177052021026611,20.632701873779297,-0.5999478697776794,4.985588073730469,1.6928484439849854,1457
-20.0132999420166,7.706946849822998,20.632701873779297,-1.4835375547409058,0.5768330693244934,0.6273981332778931,1469
3.873650074005127,2.0925440788269043,-18.593299865722656,-0.20198622345924377,1.57113778591156,-0.2166217565536499,1481
-4.218751907348633,0.8858663439750671,6.287243843078613,-0.9276968240737915,0.441869854927063,-0.46749621629714966,1493
-3.091082811355591,1.7070775032043457,2.3511762619018555,-1.6699280738830566,-0.9240169525146484,-1.7704977989196777,1505
-5.0878472328186035,-0.04787234961986542,-0.5769325494766235,-1.8632465600967407,-3.302194595336914,-2.4686293601989746,1517
4.725985527038574,0.6488403677940369,-1.017465591430664,-2.155689239501953,-2.9884347915649414,-2.5878713130950928,1529
19.139080047607422,0.09577974677085876,10.103601455688477,-1.7739815711975098,-3.7457213401794434,-0.8725190758705139,1541
10.43376350402832,5.4659743309021,5.715029716491699,-1.8503230810165405,-2.8469433784484863,0.03158804774284363,1553
4.8768205642700195,-0.7804980874061584,20.632701873779297,-1.7457364797592163,-1.8291898965835571,0.26327717304229736,1565
-0.7830722332000732,3.1938767433166504,14.056428909301758,-1.2641056776046753,-2.2087655067443848,0.05143950879573822,1577
1.1059528589248657,5.14993953704834,20.632701873779297,-1.5717365741729736,-2.9893674850463867,0.579168438911438,1590
0.11954173445701599,0.30646950006484985,6.339916229248047,-1.3737549781799316,-3.7457213401794434,0.684421181678772,1602
15.279626846313477,0.9696633815765381,20.632701873779297,-1.2373261451721191,-3.7457213401794434,1.0165666341781616,1614
2.6885201930999756,-0.8403530716896057,12.543292999267578,-0.8136508464813232,-2.4556431770324707,0.8111240863800049,1626
11.49918270111084,2.6168742179870605,20.632701873779297,-0.261274129152298,-0.8651286363601685,0.5341362953186035,1638
-3.9338417053222656,0.32801729440689087,20.632701873779297,-0.2975130081176758,1.7624578475952148,-0.015975505113601685,1650
0.21530982851982117,0.13887538015842438,-7.639827251434326,-0.3613307476043701,-0.7350949048995972,-0.5848729014396667,1662
19.21270179748535,-3.0549895763397217,20.632701873779297,-1.0574640035629272,-1.2774794101715088,-0.6285727620124817,1674
3.4211459159851074,-0.3136287331581116,6.988744735717773,-0.7888697981834412,1.5604794025421143,-0.08965238928794861,1686
-0.026504546403884888,5.319928169250488,0.4070843458175659,-0.5673062801361084,-0.13741958141326904,0.14603368937969208,1698
-6.0598931312561035,2.341541051864624,11.839397430419922,0.08765850216150284,0.08201229572296143,0.06809341907501221,1710
1.3573440313339233,2.631239414215088,9.062124252319336,-0.7357105612754822,0.02392345666885376,1.52164626121521,1722
1.175384759902954,-1.6280455589294434,5.274496555328369,-0.3701240122318268,-1.5163627862930298,2.2730703353881836,1734
-0.232405886054039,0.9433271884918213,-0.6200281381607056,0.7412909865379333,-1.092421054840088,1.827545166015625,1746
4.824148178100586,3.0789551734924316,3.1221091747283936,1.056782603263855,-0.3411301374435425,2.1880688667297363,1758
11.31961727142334,-0.13406361639499664,7.7620720863342285,1.6557902097702026,0.5066202282905579,2.3107750415802,1770
19.21270179748535,-0.4500982165336609,19.821666717529297,1.5189616680145264,2.180004596710205,3.640822410583496,1782
-10.436492919921875,0.45251578092575073,-11.290985107421875,2.5429770946502686,4.3575358390808105,2.827845335006714,1794
0.39966335892677307,6.306339263916016,15.078752517700195,1.8836156129837036,-0.18644869327545166,1.904019832611084,1806
19.21270179748535,2.83235239982605,13.448301315307617,1.2772802114486694,-0.7393583059310913,2.162755012512207,1818
-8.94969367980957,1.7310194969177246,-13.309297561645508,1.2554303407669067,-1.0841608047485352,2.0316553115844727,1830
-16.192153930664062,3.5697665214538574,0.7733972072601318,1.6472634077072144,-1.257228136062622,1.4016048908233643,1842
17.151893615722656,1.9608628749847412,7.352663516998291,1.2735497951507568,-2.3657121658325195,2.546727418899536,1854
8.76500415802002,4.522658824920654,10.685392379760742,1.3072572946548462,-3.7457213401794434,0.7796814441680908,1866
-15.119551658630371,-0.569808304309845,-0.09569799900054932,0.8165666460990906,-3.7457213401794434,0.4748483896255493,1878
-1.6306196451187134,1.3742834329605103,5.001557350158691,0.9047656655311584,-0.9562588930130005,1.4754149913787842,1890
-8.12130069732666,1.2713327407836914,10.73567008972168,0.6518927812576294,-3.2892708778381348,1.3337900638580322,1902
19.21270179748535,-3.7876152992248535,8.597648620605469,1.0077534914016724,1.5738024711608887,1.411996841430664,1914
-2.138190507888794,-0.6967009902000427,3.3495583534240723,0.8630642890930176,-0.8247596025466919,1.2858269214630127,1926
19.21270179748535,2.9472739696502686,1.0391535758972168,1.5890413522720337,2.5493216514587402,2.189401149749756,1938
3.84731388092041,1.8148164749145508,5.899383068084717,2.0428271293640137,2.9255666732788086,2.302114963531494,1950
3.3110125064849854,1.3503414392471313,3.6272857189178467,2.567624807357788,4.521543979644775,2.3755252361297607,1962
1.1298948526382446,0.46209263801574707,2.2410428524017334,3.131192922592163,4.985588073730469,2.3627350330352783,1974
-0.9961562156677246,1.458080530166626,2.8563528060913086,3.582447052001953,4.985588073730469,2.6864869594573975,1986
10.263774871826172,0.8858663439750671,4.357517242431641,3.8194656372070312,4.985588073730469,3.43537974357605,1998
7.7474684715271,1.9057961702346802,1.8699415922164917,3.9618897438049316,4.985588073730469,3.8396034240722656,2010
11.659594535827637,2.8826305866241455,10.647085189819336,4.355587959289551,4.985588073730469,3.1539955139160156,2023
11.53270149230957,0.4070259630680084,9.471532821655273,4.355587959289551,4.985588073730469,3.492802619934082,2035
3.756333827972412,0.8643184900283813,17.250293731689453,4.057816028594971,4.985588073730469,4.278200626373291,2047
3.449876308441162,0.7470026016235352,13.479425430297852,0.9503307938575745,-2.5253233909606934,3.469886541366577,2059
-5.446977138519287,1.2330255508422852,14.540056228637695,0.5457075238227844,-2.931145668029785,1.1323444843292236,2071
13.811981201171875,-0.9433037638664246,9.890518188476562,-1.002839207649231,-3.7457213401794434,0.8764073252677917,2083
9.219902992248535,-1.414961576461792,2.1069674491882324,-0.8520213961601257,-1.7529817819595337,1.2467901706695557,2095
2.077998638153076,-0.629663348197937,5.79403829574585,-0.5731683969497681,0.5521852970123291,1.392545223236084,2107
4.6326117515563965,5.487522125244141,6.481173992156982,-0.8590826392173767,-0.09092193841934204,0.49616539478302,2119
-9.65119457244873,6.591248989105225,19.759416580200195,-1.0763827562332153,-2.080730438232422,0.09727104753255844,2131
-5.765406131744385,0.9888169765472412,2.980851173400879,-0.7445037961006165,-3.2752819061279297,-1.4250290393829346,2143
2.1641898155212402,-0.062237560749053955,0.9242318868637085,-0.20078712701797485,-3.2502341270446777,-1.7814226150512695,2155
-0.6370259523391724,-1.4460861682891846,1.6807997226715088,-0.145762637257576,-3.0080199241638184,-2.041090250015259,2167
2.901603937149048,0.8355880975723267,-0.16034150123596191,0.3024272620677948,-2.4437856674194336,-2.3569817543029785,2179
9.547908782958984,1.7262310981750488,-6.440332412719727,-0.08341040462255478,-3.7457213401794434,-2.5173919200897217,2191
5.374814510345459,1.7693266868591309,3.0383119583129883,0.7634073495864868,-3.7457213401794434,-2.9177517890930176,2203
0.8497732877731323,2.1715526580810547,6.481173992156982,1.1487120389938354,-3.7457213401794434,-3.1752877235412598,2215
-0.8979939222335815,1.5394833087921143,2.3008978366851807,1.2823430299758911,-3.7457213401794434,-3.40897536277771,2227
5.099481105804443,-0.23222588002681732,4.5131402015686035,1.4642037153244019,-3.7457213401794434,-3.5408742427825928,2239
13.467216491699219,-4.958379745483398,-3.1243629455566406,0.4126095175743103,-2.1456141471862793,-0.7833874225616455,2251
0.5050082206726074,1.4054080247879028,1.321669340133667,0.6692128777503967,-3.7457213401794434,-0.8926370739936829,2263
5.049202919006348,-1.637622356414795,-0.46201086044311523,0.889843761920929,-3.7457213401794434,-0.07619601488113403,2275
4.601487159729004,0.7302432060241699,5.947267055511475,0.8802511692047119,-3.640868663787842,0.2892572581768036,2287
5.032443523406982,-0.08378536999225616,1.6544634103775024,1.1577718257904053,-2.2376766204833984,0.6015512943267822,2299
-2.442254066467285,2.0422656536102295,3.3375871181488037,1.2056019306182861,-0.8691256046295166,0.5952894687652588,2311
8.872743606567383,-1.5466426610946655,1.1516810655593872,1.6171530485153198,1.447232723236084,0.6468499302864075,2323
-0.3904232084751129,0.16521160304546356,2.3272342681884766,2.0862603187561035,2.6970748901367188,0.4605926275253296,2335
7.124975681304932,3.2154245376586914,-5.525747299194336,2.8147687911987305,2.9326276779174805,0.7533016800880432,2347
0.06208091974258423,0.8786837458610535,-0.5314427614212036,3.0908238887786865,3.032684803009033,0.6697657108306885,2359
-0.13184940814971924,0.3399883210659027,-0.9839468002319336,3.1715619564056396,3.0157642364501953,0.625,2371
-3.878775119781494,-0.08617956936359406,-8.077966690063477,3.7942848205566406,3.130342960357666,0.3762572705745697,2383
7.7019782066345215,10.64223861694336,7.043811321258545,4.355587959289551,4.3396830558776855,-0.3695712089538574,2395
3.29425311088562,5.284014701843262,18.56710433959961,4.028371810913086,4.985588073730469,-0.02650076150894165,2407
6.574309349060059,5.552165508270264,11.949531555175781,2.7741332054138184,4.985588073730469,0.7842113375663757,2419
9.480871200561523,5.834681510925293,12.531322479248047,1.4915159940719604,4.985588073730469,1.427718162536621,2432
19.21270179748535,19.78270149230957,20.632701873779297,-0.4434012174606323,4.985588073730469,1.7799816131591797,2444
-2.7271640300750732,-19.443300247192383,20.632701873779297,-4.375721454620361,4.985588073730469,3.800966262817383,2456
19.21270179748535,19.78270149230957,-18.593299865722656,-4.375721454620361,4.985588073730469,1.8426003456115723,2468
5.348478317260742,19.589370727539062,20.632701873779297,-4.375721454620361,4.985588073730469,0.2363644689321518,2480
-6.6752028465271,7.577660083770752,19.464929580688477,-4.375721454620361,4.985588073730469,0.035584986209869385,2492
5.57832145690918,7.244865894317627,12.876087188720703,-4.375721454620361,2.5595803260803223,-0.6051239967346191,2504
10.687548637390137,-13.833685874938965,-4.934379577636719,-4.375721454620361,2.1293768882751465,2.8327748775482178,2516
9.471294403076172,10.965456008911133,20.632701873779297,-4.375721454620361,2.304708957672119,3.2517871856689453,2528
-3.2562828063964844,-2.0685784816741943,8.171480178833008,-4.375721454620361,2.69694185256958,2.5443291664123535,2540
-6.605771064758301,-2.4181320667266846,-2.1571056842803955,-4.342147350311279,2.7575621604919434,2.3274288177490234,2552
-0.6059013605117798,-0.8547182679176331,13.311832427978516,-3.527970790863037,2.988851547241211,2.1119937896728516,2564
-2.315361499786377,-1.7980338335037231,11.374921798706055,-2.870074987411499,2.71705961227417,1.868180751800537,2576
-3.198821783065796,-1.2210311889648438,5.159574508666992,-2.2117793560028076,2.6011486053466797,1.5879952907562256,2588
-4.707169055938721,-7.455532550811768,9.256053924560547,-1.8404639959335327,2.364396572113037,1.578003168106079,2600
-7.407828330993652,-1.027100920677185,-2.8202996253967285,-1.4786078929901123,1.9746953248977661,1.2808973789215088,2612
-6.679991245269775,-5.054148197174072,18.488096237182617,-1.3533705472946167,0.7576278448104858,-2.387091875076294,2624
-3.63456654548645,-3.9647860527038574,6.497933387756348,-1.2459862232208252,-0.5614945888519287,-2.1981699466705322,2636
-3.4550013542175293,-4.225754261016846,7.012686729431152,-1.1007641553878784,-2.1530752182006836,-1.9439647197723389,2648
-0.701669454574585,-3.620021104812622,5.226612567901611,-0.9671332240104675,-3.7457213401794434,-1.9251792430877686,2660
1.939135193824768,-4.043795108795166,-0.9839468002319336,-0.6893460750579834,-3.7457213401794434,-1.7132081985473633,2672
2.6047229766845703,-3.404543161392212,1.4294084310531616,-0.4352741241455078,-3.7457213401794434,-1.5358774662017822,2684
4.51529598236084,-9.84973430633545,-8.52328872680664,-1.283290982246399,-3.7457213401794434,-1.81699538230896,2696
