accel_x,accel_y,accel_z,gyro_x,gyro_y,gyro_z,time
0.5169792175292969,0.016771093010902405,9.895305633544922,0.0002588052302598953,-0.009384393692016602,0.0237274169921875,34
0.4355764091014862,0.002405881881713867,9.926429748535156,0.00199081189930439,-0.011382818222045898,0.021062791347503662,46
0.5121908187866211,-0.05026654899120331,9.933612823486328,0.003189893439412117,-0.015113294124603271,0.021062791347503662,59
0.5816227197647095,0.028742104768753052,9.868968963623047,-7.657334208488464e-06,-0.013514518737792969,0.02266155183315277,72
0.483460396528244,0.002405881881713867,9.837844848632812,0.0011914242058992386,-0.005254209041595459,0.019996926188468933,84
0.461912602186203,0.04789571464061737,9.981496810913086,0.0007917303591966629,-0.00445479154586792,0.02306126058101654,97
0.49064305424690247,-0.0287187397480011,9.890518188476562,-0.0006738128140568733,0.001140892505645752,0.018931075930595398,109
0.4690952003002167,0.04550151526927948,9.959949493408203,-0.0008070440962910652,0.0031393766403198242,0.021862179040908813,121
0.49064305424690247,0.06226092576980591,9.837844848632812,-0.0006738128140568733,0.009134769439697266,0.019996926188468933,133
0.42599955201148987,-0.038295552134513855,9.926429748535156,-0.0009402753785252571,0.00806891918182373,0.02172894775867462,146
0.5552865266799927,0.009588494896888733,9.924036026000977,-0.0032052062451839447,0.007669210433959961,0.01826491951942444,158
0.5074024200439453,0.0407131165266037,9.9407958984375,0.0010581929236650467,0.009667694568634033,0.020263388752937317,170
0.4858545958995819,1.1682510375976562e-05,9.854604721069336,0.0014578867703676224,-0.0011240839958190918,0.019996926188468933,182
0.4858545958995819,0.038318902254104614,9.81869125366211,-0.00027411896735429764,-0.0037887096405029297,0.019863709807395935,194
0.47148939967155457,-0.05505496263504028,9.801931381225586,-0.0022725877352058887,-0.009384393692016602,0.02172894775867462,206
0.4882487952709198,-0.01674772799015045,9.902488708496094,0.0017243493348360062,-0.01084989309310913,0.02239510416984558,218
0.49064305424690247,0.016771093010902405,9.928825378417969,0.0009249616414308548,-0.011915802955627441,0.024260327219963074,230
0.5313444137573242,-0.040689751505851746,9.971920013427734,0.002656967379152775,-0.008984625339508057,0.02199539542198181,243
0.49782565236091614,0.02634790539741516,9.856998443603516,0.0002588052302598953,-0.011116385459899902,0.02306126058101654,255
0.5313444137573242,0.016771093010902405,9.811508178710938,0.0033231237903237343,-0.005120992660522461,0.024793267250061035,267
0.47867199778556824,0.038318902254104614,9.93840217590332,0.0003920365124940872,-0.00445479154586792,0.02439357340335846,279
0.49064305424690247,0.028742104768753052,9.892911911010742,0.00372281763702631,-0.0009908080101013184,0.022794798016548157,291
0.514585018157959,-0.002382516860961914,9.873758316040039,-0.001206737942993641,0.005537509918212891,0.026258796453475952,303
0.5241618156433105,0.011982694268226624,9.821084976196289,0.002124043181538582,0.007535994052886963,0.02399386465549469,315
0.4595184028148651,-0.007170930504798889,9.88572883605957,0.0035895872861146927,0.011266469955444336,0.02306126058101654,327
0.5241618156433105,0.011982694268226624,9.914459228515625,0.0011914242058992386,0.007269561290740967,0.023194491863250732,339
0.44994160532951355,-0.023930341005325317,9.952766418457031,0.00372281763702631,0.006603360176086426,0.019730478525161743,351
0.49543145298957825,-0.004776716232299805,9.83066177368164,0.003456355072557926,0.0084686279296875,0.019996926188468933,363
0.4571242034435272,0.002405881881713867,9.933612823486328,0.005721285939216614,0.0007412433624267578,0.019064322113990784,375
0.4427590072154999,0.009588494896888733,9.94318962097168,0.002656967379152775,-0.0032557249069213867,0.020263388752937317,387
0.49303725361824036,0.016771093010902405,9.904882431030273,-0.0022725877352058887,-0.005254209041595459,0.02172894775867462,399
0.45473000407218933,0.021559491753578186,9.813901901245117,0.001857580617070198,-0.010716676712036133,0.023460954427719116,411
0.47627779841423035,-0.021536126732826233,9.902488708496094,0.0035895872861146927,-0.007119417190551758,0.02079632878303528,423
0.4858545958995819,0.023953691124916077,9.845027923583984,-0.00027411896735429764,-0.01378101110458374,0.022928014397621155,436
0.4116343557834625,0.04310731589794159,9.902488708496094,0.0011914242058992386,-0.010583460330963135,0.021329239010810852,448
0.47388359904289246,0.04550151526927948,9.971920013427734,0.0027901995927095413,-0.0056539177894592285,0.018931075930595398,460
0.514585018157959,-0.00956512987613678,9.950372695922852,-0.0005405815318226814,-0.003921926021575928,0.019330784678459167,472
0.4643068015575409,-0.002382516860961914,9.979103088378906,-0.0014732005074620247,0.0024732351303100586,0.020263388752937317,484
0.4643068015575409,0.009588494896888733,9.967132568359375,-0.0016064317896962166,0.0032725930213928223,0.022794798016548157,496
0.5026140213012695,-0.0287187397480011,9.919248580932617,0.0002588052302598953,0.006070494651794434,0.023194491863250732,508
0.5121908187866211,-0.01195932924747467,9.957555770874023,0.0010581929236650467,0.004738152027130127,0.017199084162712097,520
0.5265560150146484,-0.03590133786201477,9.931219100952148,0.00012557487934827805,0.009001553058624268,0.0187978595495224,532
0.49064305424690247,0.05507832020521164,9.924036026000977,-0.002139356918632984,0.008202135562896729,0.020929545164108276,544
0.440364807844162,0.05986672639846802,9.809114456176758,-0.0036049000918865204,0.007402777671813965,0.021329239010810852,556
0.514585018157959,0.05986672639846802,9.849815368652344,-0.0029387441463768482,0.005804002285003662,0.025459423661231995,568
0.45473000407218933,-0.014353528618812561,9.88572883605957,-0.004004593938589096,-0.004055142402648926,0.02519296109676361,580
0.5337386131286621,0.014376893639564514,9.88333511352539,-0.0014732005074620247,-0.010050535202026367,0.02466002106666565,592
0.5026140213012695,-0.023930341005325317,9.890518188476562,-0.0008070440962910652,-0.015513002872467041,0.02585911750793457,604
0.47148939967155457,0.028742104768753052,10.053323745727539,-0.002139356918632984,-0.01204901933670044,0.022528335452079773,616
0.47627779841423035,0.06704933196306229,9.94318962097168,-0.001206737942993641,-0.012448668479919434,0.02239510416984558,628
0.5361328125,-0.05266076326370239,10.007833480834961,0.0025237370282411575,-0.011382818222045898,0.02266155183315277,640
0.5169792175292969,-0.014353528618812561,9.904882431030273,0.0029234299436211586,-0.010983169078826904,0.019996926188468933,652
0.483460396528244,0.05507832020521164,9.909671783447266,-0.004004593938589096,-0.002456367015838623,0.023460954427719116,664
0.56965172290802,0.04789571464061737,9.768413543701172,-0.0028055128641426563,0.0003414750099182129,0.02266155183315277,676
0.5361328125,0.021559491753578186,9.9407958984375,-0.00040735118091106415,0.001407325267791748,0.020929545164108276,688
0.4858545958995819,0.03353050351142883,9.914459228515625,-0.002139356918632984,0.0008744597434997559,0.02466002106666565,701
0.44754740595817566,0.028742104768753052,9.924036026000977,-0.0018728943541646004,0.004205167293548584,0.021595701575279236,713
0.49303725361824036,0.0407131165266037,9.921642303466797,-0.0014732005074620247,0.002339959144592285,0.023194491863250732,725
0.5289502143859863,0.023953691124916077,9.914459228515625,-7.657334208488464e-06,0.008735120296478271,0.022128641605377197,737
0.461912602186203,0.04789571464061737,9.828268051147461,0.000658499076962471,0.004604935646057129,0.021196022629737854,749
0.4858545958995819,0.023953691124916077,9.854604721069336,-0.002139356918632984,-5.817413330078125e-05,0.02172894775867462,761
0.49303725361824036,0.011982694268226624,9.969526290893555,-0.0005405815318226814,-0.001523733139038086,0.019863709807395935,773
0.5241618156433105,-0.023930341005325317,9.878545761108398,-0.001073506660759449,-0.005387425422668457,0.019197553396224976,785
0.4858545958995819,-0.01195932924747467,9.959949493408203,-0.001206737942993641,-0.005520641803741455,0.019863709807395935,797
0.49543145298957825,0.028742104768753052,9.9407958984375,0.0025237370282411575,-0.006453335285186768,0.020929545164108276,809
0.4882487952709198,0.05747251957654953,9.952766418457031,-0.003071974962949753,-0.004055142402648926,0.021196022629737854,822
0.5050082206726074,0.002405881881713867,9.823478698730469,-0.00014088768512010574,-0.002722799777984619,0.020929545164108276,834
0.514585018157959,-0.007170930504798889,9.864181518554688,-0.0032052062451839447,-0.0031225085258483887,0.02013017237186432,846
0.5552865266799927,-0.043083950877189636,9.919248580932617,0.0007917303591966629,0.00020825862884521484,0.020663082599639893,858
0.5002198219299316,-0.040689751505851746,9.919248580932617,-0.00027411896735429764,0.0028728842735290527,0.019597232341766357,870
0.5169792175292969,0.019165292382240295,9.924036026000977,-0.0013399692252278328,0.001007676124572754,0.021329239010810852,882
0.5289502143859863,0.0071942806243896484,9.845027923583984,-0.0017396630719304085,0.001807093620300293,0.02306126058101654,894
0.48106619715690613,0.03353050351142883,9.842632293701172,-0.0020061256363987923,0.0031393766403198242,0.020396634936332703,906
0.47388359904289246,0.05028991401195526,9.87136459350586,0.0009249616414308548,0.001940310001373291,0.02266155183315277,918
0.48106619715690613,0.031136304140090942,9.799537658691406,0.0003920365124940872,-0.0004578828811645508,0.021862179040908813,930
0.4188169538974762,-0.004776716232299805,9.947978973388672,0.0015911189839243889,0.002073526382446289,0.025459423661231995,942
0.4667010009288788,0.031136304140090942,9.861787796020508,-0.004937212448567152,-0.002323150634765625,0.02079632878303528,954
0.49064305424690247,0.05507832020521164,9.849815368652344,-0.0009402753785252571,-0.004055142402648926,0.023194491863250732,966
0.49064305424690247,-0.00956512987613678,9.895305633544922,0.0010581929236650467,-0.010316967964172363,0.023194491863250732,978
0.5409212112426758,0.038318902254104614,9.983890533447266,0.0003920365124940872,-0.009117960929870605,0.019996926188468933,990
0.5241618156433105,0.002405881881713867,9.931219100952148,-7.657334208488464e-06,-0.0056539177894592285,0.022794798016548157,1002
0.4858545958995819,0.02634790539741516,9.88812255859375,-0.0017396630719304085,-0.0095176100730896,0.01746554672718048,1014
0.5409212112426758,0.02634790539741516,9.823478698730469,0.0010581929236650467,-0.001656949520111084,0.020263388752937317,1026
0.6031705141067505,-0.057449162006378174,9.9407958984375,0.000658499076962471,-0.002856016159057617,0.01746554672718048,1038
0.5217676162719727,-0.023930341005325317,9.9407958984375,0.0013246554881334305,-0.006586551666259766,0.020529866218566895,1050
0.5672575235366821,-0.023930341005325317,9.876152038574219,-0.0013399692252278328,-0.0012573003768920898,0.022128641605377197,1062
0.5361328125,0.06226092576980591,9.864181518554688,-0.0006738128140568733,0.001007676124572754,0.023194491863250732,1074
0.49782565236091614,0.031136304140090942,9.9407958984375,-0.0014732005074620247,0.0016738176345825195,0.024127110838890076,1086
0.49064305424690247,-0.014353528618812561,9.931219100952148,0.0017243493348360062,0.002339959144592285,0.022928014397621155,1098
0.5097966194152832,0.023953691124916077,9.94558334350586,0.0015911189839243889,0.006470143795013428,0.02239510416984558,1110
0.49303725361824036,0.028742104768753052,9.914459228515625,0.0017243493348360062,0.0008744597434997559,0.020529866218566895,1122
0.5217676162719727,0.035924702882766724,9.931219100952148,-0.002139356918632984,-0.00032466650009155273,0.022928014397621155,1134
0.4882487952709198,0.03353050351142883,9.931219100952148,0.0010581929236650467,0.001007676124572754,0.02199539542198181,1146
0.44994160532951355,0.028742104768753052,9.921642303466797,0.0023905057460069656,-0.0021898746490478516,0.026658490300178528,1158
0.591199517250061,0.06944353133440018,9.895305633544922,0.0005252687260508537,-0.0013905167579650879,0.026258796453475952,1170
0.5193734169006348,0.02634790539741516,9.914459228515625,0.000658499076962471,-0.007785618305206299,0.026658490300178528,1182
0.5193734169006348,0.04550151526927948,9.94558334350586,0.002656967379152775,-0.009117960929870605,0.02079632878303528,1194
0.5265560150146484,0.009588494896888733,9.88812255859375,0.0009249616414308548,-0.007918834686279297,0.02332770824432373,1206
0.6055647134780884,0.021559491753578186,9.936006546020508,0.002257273532450199,-0.0112496018409729,0.019863709807395935,1218
0.5481038093566895,-0.00956512987613678,9.876152038574219,0.001857580617070198,-0.007385909557342529,0.019996926188468933,1230
0.4858545958995819,-0.0287187397480011,9.87136459350586,-0.001073506660759449,-0.001790165901184082,0.02079632878303528,1242
0.5169792175292969,-0.007170930504798889,9.969526290893555,0.00372281763702631,-0.004987776279449463,0.021196022629737854,1254
0.5433154106140137,0.011982694268226624,9.933612823486328,0.002656967379152775,-0.0033889412879943848,0.018531396985054016,1266
0.4355764091014862,-0.01195932924747467,9.924036026000977,0.0014578867703676224,-0.0001913905143737793,0.018398165702819824,1278
0.4427590072154999,0.02634790539741516,9.890518188476562,0.00012557487934827805,0.0006079673767089844,0.018398165702819824,1290
0.47388359904289246,0.009588494896888733,9.900094985961914,-0.0005405815318226814,0.0028728842735290527,0.020663082599639893,1302
0.47388359904289246,0.1101449579000473,9.88812255859375,0.004655436612665653,0.00047475099563598633,0.021329239010810852,1315
0.49543145298957825,0.038318902254104614,9.926429748535156,-0.00040735118091106415,0.0035390853881835938,0.019996926188468933,1327
0.4882487952709198,-0.007170930504798889,9.902488708496094,0.001857580617070198,0.004871368408203125,0.020929545164108276,1339
0.44994160532951355,0.002405881881713867,9.94318962097168,-0.0016064317896962166,-0.0013905167579650879,0.02172894775867462,1351
0.47867199778556824,0.019165292382240295,9.849815368652344,-0.00027411896735429764,-0.0048545002937316895,0.02306126058101654,1363
0.47148939967155457,-0.021536126732826233,9.964736938476562,-0.0013399692252278328,-0.005254209041595459,0.021196022629737854,1375
0.49543145298957825,0.021559491753578186,9.88572883605957,0.0015911189839243889,-0.0036554336547851562,0.01813170313835144,1387
0.514585018157959,0.031136304140090942,9.878545761108398,-0.00040735118091106415,-0.00445479154586792,0.019730478525161743,1399
0.49064305424690247,-0.021536126732826233,9.909671783447266,-0.00027411896735429764,-0.001523733139038086,0.021329239010810852,1411
0.49543145298957825,0.016771093010902405,9.878545761108398,0.0014578867703676224,0.0003414750099182129,0.02306126058101654,1423
0.5289502143859863,0.014376893639564514,9.952766418457031,-0.0009402753785252571,0.0006079673767089844,0.02079632878303528,1435
0.42839381098747253,0.038318902254104614,9.88812255859375,-0.0028055128641426563,-0.0013905167579650879,0.021462485194206238,1447
0.4667010009288788,0.004800081253051758,9.914459228515625,0.0030566612258553505,0.0003414750099182129,0.02399386465549469,1459
0.461912602186203,0.0407131165266037,9.931219100952148,0.0015911189839243889,0.0031393766403198242,0.022928014397621155,1471
0.47148939967155457,0.05507832020521164,9.9407958984375,-0.0048039816319942474,0.007136344909667969,0.020929545164108276,1483
0.4690952003002167,0.031136304140090942,9.813901901245117,-0.0013399692252278328,0.004738152027130127,0.025592640042304993,1495
0.5672575235366821,1.1682510375976562e-05,9.9407958984375,-0.0046707503497600555,0.001140892505645752,0.026125580072402954,1507
0.5433154106140137,0.06226092576980591,9.892911911010742,0.0010581929236650467,0.0027396678924560547,0.02079632878303528,1520
0.5097966194152832,0.05747251957654953,9.93840217590332,-0.001206737942993641,-0.0012573003768920898,0.023194491863250732,1532
0.5672575235366821,0.038318902254104614,9.864181518554688,0.001857580617070198,-0.001790165901184082,0.023594170808792114,1544
0.5528923273086548,-0.002382516860961914,9.88572883605957,-0.0006738128140568733,-0.004055142402648926,0.02266155183315277,1556
0.4690952003002167,0.0071942806243896484,9.928825378417969,0.0015911189839243889,-0.005387425422668457,0.02399386465549469,1568
0.44994160532951355,0.04550151526927948,9.804325103759766,-0.0005405815318226814,-0.006852984428405762,0.020929545164108276,1580
0.49303725361824036,0.038318902254104614,9.957555770874023,0.0010581929236650467,-0.004987776279449463,0.02439357340335846,1593
0.4858545958995819,0.03353050351142883,9.866575241088867,0.0011914242058992386,-0.002856016159057617,0.0237274169921875,1605
0.5217676162719727,0.002405881881713867,9.94318962097168,-0.0013399692252278328,-0.0021898746490478516,0.022928014397621155,1617
0.40445175766944885,0.04550151526927948,9.94558334350586,0.0007917303591966629,0.003672301769256592,0.022261857986450195,1629
0.47388359904289246,0.07902033627033234,9.907276153564453,0.000658499076962471,0.005004584789276123,0.021196022629737854,1641
0.4571242034435272,0.07423193752765656,9.890518188476562,-0.003071974962949753,0.0084686279296875,0.01946401596069336,1653
0.4667010009288788,0.06704933196306229,9.964736938476562,0.001857580617070198,0.005804002285003662,0.02306126058101654,1665
0.4595184028148651,0.09577974677085876,9.87136459350586,-0.001073506660759449,0.003938734531402588,0.021462485194206238,1677
0.5552865266799927,0.05507832020521164,9.904882431030273,-0.0022725877352058887,0.0035390853881835938,0.022528335452079773,1689
0.5026140213012695,0.011982694268226624,9.950372695922852,-0.003071974962949753,-0.00192338228225708,0.02199539542198181,1701
0.5433154106140137,1.1682510375976562e-05,9.94558334350586,0.0009249616414308548,-0.0009908080101013184,0.022928014397621155,1713
0.5481038093566895,-0.040689751505851746,9.88333511352539,-0.0005405815318226814,-0.0009908080101013184,0.022528335452079773,1725
0.5074024200439453,0.031136304140090942,9.866575241088867,-0.0026722815819084644,-0.006186783313751221,0.020529866218566895,1737
0.5169792175292969,0.03353050351142883,9.801931381225586,-0.0009402753785252571,-0.010316967964172363,0.024793267250061035,1749
0.44754740595817566,0.05028991401195526,9.926429748535156,-0.0014732005074620247,-0.010183751583099365,0.021595701575279236,1761
0.5313444137573242,0.019165292382240295,9.868968963623047,0.003456355072557926,-0.0112496018409729,0.02466002106666565,1773
0.5481038093566895,-0.0287187397480011,9.916852951049805,0.000658499076962471,-0.009384393692016602,0.02079632878303528,1785
0.47388359904289246,0.0071942806243896484,9.936006546020508,0.0010581929236650467,-0.008451759815216064,0.021862179040908813,1797
0.5888053178787231,-0.021536126732826233,9.950372695922852,0.0029234299436211586,-0.002589583396911621,0.02439357340335846,1809
0.5361328125,0.014376893639564514,9.890518188476562,-0.0022725877352058887,-0.001790165901184082,0.022128641605377197,1821
0.5840169191360474,-0.007170930504798889,9.864181518554688,0.0011914242058992386,0.001140892505645752,0.020663082599639893,1833
0.5241618156433105,0.031136304140090942,9.828268051147461,0.0003920365124940872,-0.003522157669067383,0.016532927751541138,1845
0.514585018157959,0.009588494896888733,9.895305633544922,0.00199081189930439,-0.006186783313751221,0.01626645028591156,1857
0.483460396528244,-0.014353528618812561,9.892911911010742,0.001857580617070198,-0.010983169078826904,0.0187978595495224,1869
0.4331822097301483,0.0071942806243896484,9.864181518554688,0.00199081189930439,-0.009917259216308594,0.017199084162712097,1881
0.3972691595554352,-0.021536126732826233,9.912065505981445,-0.00027411896735429764,-0.001790165901184082,0.021595701575279236,1893
0.3469909131526947,0.002405881881713867,9.849815368652344,0.0007917303591966629,-0.00032466650009155273,0.024127110838890076,1905
0.33980831503868103,0.03353050351142883,10.041351318359375,0.0011914242058992386,0.004071950912475586,0.022261857986450195,1917
0.39966335892677307,0.07662613689899445,9.926429748535156,-0.0024058190174400806,0.012332320213317871,0.024793267250061035,1930
0.3948749601840973,0.019165292382240295,9.936006546020508,-0.004137825220823288,0.015529870986938477,0.02466002106666565,1942
0.47627779841423035,0.05747251957654953,9.902488708496094,-0.0037381313741207123,0.01246553659439087,0.02266155183315277,1954
0.45473000407218933,0.0646551251411438,9.904882431030273,-0.004004593938589096,0.008735120296478271,0.02585911750793457,1966
0.423605352640152,0.04550151526927948,9.854604721069336,-0.00547013757750392,0.009401202201843262,0.029056653380393982,1978
0.5241618156433105,0.002405881881713867,9.93840217590332,-0.005736600141972303,-0.002323150634765625,0.02585911750793457,1990
0.4690952003002167,0.03353050351142883,9.864181518554688,-0.0036049000918865204,-0.005120992660522461,0.023860648274421692,2002
0.49782565236091614,-0.021536126732826233,9.964736938476562,-0.002139356918632984,-0.00871819257736206,0.022928014397621155,2014
0.5528923273086548,-0.019141927361488342,9.890518188476562,-0.005336906295269728,-0.007652401924133301,0.02505972981452942,2026
0.5361328125,-0.04547815024852753,9.909671783447266,-0.0036049000918865204,-0.0095176100730896,0.0237274169921875,2038
0.5265560150146484,1.1682510375976562e-05,9.916852951049805,-0.0028055128641426563,-0.005254209041595459,0.02599233388900757,2050
0.49064305424690247,-0.08617956936359406,9.950372695922852,-0.0006738128140568733,-0.003522157669067383,0.025459423661231995,2062
0.5552865266799927,-0.03350713849067688,9.907276153564453,0.0013246554881334305,0.0032725930213928223,0.026658490300178528,2074
0.5816227197647095,-0.01195932924747467,9.895305633544922,-0.00027411896735429764,0.004471719264984131,0.0237274169921875,2086
0.5744401216506958,-0.01674772799015045,9.971920013427734,-0.0006738128140568733,0.004604935646057129,0.024260327219963074,2098
0.6031705141067505,0.009588494896888733,9.845027923583984,-0.0018728943541646004,0.007402777671813965,0.026125580072402954,2110
0.5959879159927368,-0.040689751505851746,9.83305549621582,-0.0017396630719304085,0.006603360176086426,0.025459423661231995,2122
0.5959879159927368,-0.059843361377716064,9.83066177368164,-0.002139356918632984,0.0051378607749938965,0.026258796453475952,2134
0.6079589128494263,-0.08378536999225616,9.900094985961914,0.004921899177134037,-0.004987776279449463,0.02452680468559265,2146
0.5576807260513306,0.023953691124916077,9.806720733642578,0.0035895872861146927,-0.008185267448425293,0.027724355459213257,2158
0.5265560150146484,-0.01674772799015045,9.950372695922852,0.0059877485036849976,-0.014713644981384277,0.02719143033027649,2170
0.47867199778556824,0.021559491753578186,9.94318962097168,0.006920367479324341,-0.020975470542907715,0.028523743152618408,2182
0.483460396528244,1.1682510375976562e-05,9.892911911010742,0.003989280201494694,-0.017245054244995117,0.02759110927581787,2194
0.4667010009288788,0.05028991401195526,9.873758316040039,0.005321592092514038,-0.0112496018409729,0.03078867495059967,2206
0.4331822097301483,0.023953691124916077,9.880941390991211,0.004522205330431461,-0.005520641803741455,0.02892342209815979,2218
0.44515320658683777,0.0407131165266037,9.856998443603516,0.003989280201494694,0.004338443279266357,0.03305359184741974,2230
0.440364807844162,0.05028991401195526,9.924036026000977,0.002656967379152775,0.005537509918212891,0.03012251853942871,2242
0.423605352640152,0.07902033627033234,9.880941390991211,0.006520673632621765,0.017395079135894775,0.03012251853942871,2254
0.38050976395606995,0.0646551251411438,9.952766418457031,0.003189893439412117,0.016196012496948242,0.02652527391910553,2266
0.3852981626987457,0.06704933196306229,9.933612823486328,-0.0020061256363987923,0.015796363353729248,0.022794798016548157,2278
0.31826052069664,0.0885971412062645,9.835451126098633,-0.0046707503497600555,0.014197587966918945,0.021062791347503662,2290
0.40445175766944885,0.03353050351142883,9.912065505981445,-0.0046707503497600555,0.01459723711013794,0.024926483631134033,2302
0.42839381098747253,0.05747251957654953,9.849815368652344,-0.004404287785291672,0.015529870986938477,0.02013017237186432,2314
0.4595184028148651,0.03353050351142883,9.902488708496094,-0.0025390502996742725,0.005404293537139893,0.020929545164108276,2326
0.47388359904289246,0.07902033627033234,9.94318962097168,-0.0022725877352058887,-0.006719768047332764,0.019597232341766357,2339
0.47388359904289246,0.03353050351142883,9.88333511352539,-0.0013399692252278328,-0.012715160846710205,0.019197553396224976,2351
0.47148939967155457,0.02634790539741516,9.904882431030273,-0.00014088768512010574,-0.012715160846710205,0.020663082599639893,2363
0.4571242034435272,0.023953691124916077,9.797143936157227,-0.0020061256363987923,-0.011116385459899902,0.018664628267288208,2375
0.5385270118713379,0.021559491753578186,9.986286163330078,-0.003471669275313616,-0.008318543434143066,0.020663082599639893,2387
0.4667010009288788,0.023953691124916077,10.007833480834961,-0.0014732005074620247,-0.008052051067352295,0.02399386465549469,2399
0.5528923273086548,0.031136304140090942,9.931219100952148,-0.0026722815819084644,0.0007412433624267578,0.021862179040908813,2411
0.5193734169006348,-0.002382516860961914,9.909671783447266,0.00199081189930439,0.006203711032867432,0.020663082599639893,2423
0.5552865266799927,-0.06702595949172974,9.974313735961914,-0.0024058190174400806,0.01060032844543457,0.023194491863250732,2435
0.5361328125,-0.057449162006378174,9.878545761108398,-0.0020061256363987923,0.01966005563735962,0.022794798016548157,2447
0.4571242034435272,-0.040689751505851746,9.878545761108398,-0.0020061256363987923,0.024323105812072754,0.022261857986450195,2459
0.5337386131286621,-0.026324540376663208,9.876152038574219,0.000658499076962471,0.02365696430206299,0.02266155183315277,2471
0.49782565236091614,-0.021536126732826233,9.83305549621582,-0.0036049000918865204,0.015529870986938477,0.024793267250061035,2483
0.5241618156433105,0.023953691124916077,9.969526290893555,0.0017243493348360062,0.011133193969726562,0.020929545164108276,2495
0.5097966194152832,0.0407131165266037,9.928825378417969,0.002656967379152775,0.00380551815032959,0.024926483631134033,2507
0.48106619715690613,-0.026324540376663208,9.83305549621582,0.0029234299436211586,-0.0036554336547851562,0.021862179040908813,2519
0.5265560150146484,-0.023930341005325317,9.88572883605957,0.0025237370282411575,-0.010716676712036133,0.02079632878303528,2531
0.49303725361824036,0.019165292382240295,9.971920013427734,0.0029234299436211586,-0.015513002872467041,0.024926483631134033,2543
0.4571242034435272,-0.03111293911933899,9.955160140991211,0.0017243493348360062,-0.01604592800140381,0.027724355459213257,2555
0.47388359904289246,1.1682510375976562e-05,9.928825378417969,0.003189893439412117,-0.016578853130340576,0.026125580072402954,2567
0.5074024200439453,1.1682510375976562e-05,9.912065505981445,0.0029234299436211586,-0.008185267448425293,0.02825726568698883,2579
0.4690952003002167,0.038318902254104614,9.957555770874023,0.0014578867703676224,-0.004188358783721924,0.024127110838890076,2591
0.4667010009288788,0.03353050351142883,9.924036026000977,0.00199081189930439,0.0028728842735290527,0.02306126058101654,2603
0.4212111532688141,0.004800081253051758,9.959949493408203,-0.0006738128140568733,0.009800910949707031,0.02692495286464691,2615
0.5026140213012695,0.0071942806243896484,9.897699356079102,0.0003920365124940872,0.011666178703308105,0.02452680468559265,2627
0.40684595704078674,-0.01195932924747467,9.914459228515625,-0.0006738128140568733,0.019393622875213623,0.029856055974960327,2639
0.45473000407218933,0.023953691124916077,9.88333511352539,-0.001073506660759449,0.024189889430999756,0.026258796453475952,2651
0.4379706084728241,0.031136304140090942,9.955160140991211,0.000658499076962471,0.021125614643096924,0.02785758674144745,2663
0.4379706084728241,0.035924702882766724,9.916852951049805,-0.0016064317896962166,0.020459413528442383,0.02439357340335846,2675
0.461912602186203,-0.019141927361488342,9.926429748535156,-0.0006738128140568733,0.012598812580108643,0.024260327219963074,2687
0.5169792175292969,-0.023930341005325317,9.897699356079102,-0.00027411896735429764,-0.0005910992622375488,0.020529866218566895,2699
0.5457096099853516,-0.043083950877189636,9.821084976196289,-0.0037381313741207123,-0.012581884860992432,0.020929545164108276,2711
0.5409212112426758,-0.01674772799015045,9.873758316040039,0.002124043181538582,-0.017245054244995117,0.02079632878303528,2723
0.5050082206726074,-0.026324540376663208,9.88572883605957,0.003456355072557926,-0.022174537181854248,0.02332770824432373,2735
0.5959879159927368,-0.040689751505851746,9.931219100952148,0.005188361741602421,-0.02270752191543579,0.023460954427719116,2747
0.5433154106140137,1.1682510375976562e-05,9.924036026000977,0.003189893439412117,-0.02697092294692993,0.02719143033027649,2759
0.5313444137573242,0.04310731589794159,9.955160140991211,0.004522205330431461,-0.02270752191543579,0.021329239010810852,2771
0.5433154106140137,0.019165292382240295,9.81629753112793,0.0009249616414308548,-0.01204901933670044,0.02945636212825775,2783
0.612747311592102,0.021559491753578186,9.88572883605957,0.0013246554881334305,-0.0004578828811645508,0.03545176982879639,2795
0.5983821153640747,0.011982694268226624,9.979103088378906,0.008652374148368835,0.009267985820770264,0.03438590466976166,2807
0.5576807260513306,0.011982694268226624,9.959949493408203,0.006653904914855957,0.0051378607749938965,0.03345330059528351,2819
0.47388359904289246,0.004800081253051758,9.849815368652344,0.008385911583900452,0.004871368408203125,0.03411945700645447,2831
0.4690952003002167,0.08380874246358871,9.866575241088867,0.00825268030166626,0.0007412433624267578,0.03238743543624878,2843
0.3709329664707184,0.08380874246358871,9.964736938476562,0.002257273532450199,0.001140892505645752,0.030655428767204285,2855
0.31826052069664,0.07902033627033234,10.058111190795898,0.0033231237903237343,0.001007676124572754,0.027457892894744873,2867
0.3422025144100189,0.1364811807870865,9.957555770874023,0.0035895872861146927,-0.00192338228225708,0.02825726568698883,2879
0.3278373181819916,0.0885971412062645,9.914459228515625,0.003456355072557926,7.50422477722168e-05,0.026392042636871338,2891
0.37572136521339417,0.1340869814157486,9.876152038574219,0.002257273532450199,0.001407325267791748,0.022928014397621155,2903
