accel_x,accel_y,accel_z,gyro_x,gyro_y,gyro_z,time
0.6103531122207642,-0.021536126732826233,9.926429748535156,-0.00040735118091106415,0.0030061006546020508,0.020396634936332703,3
0.5576807260513306,-0.01195932924747467,9.88812255859375,-0.0006738128140568733,0.0026064515113830566,0.023194491863250732,16
0.6749966144561768,0.009588494896888733,9.969526290893555,-0.0025390502996742725,-0.0005910992622375488,0.02505972981452942,29
0.5840169191360474,-0.03111293911933899,9.849815368652344,-0.0038713631220161915,0.0003414750099182129,0.02266155183315277,42
0.64866042137146,-0.014353528618812561,9.792354583740234,-0.004004593938589096,-0.0012573003768920898,0.022261857986450195,55
0.5648633241653442,-0.038295552134513855,9.904882431030273,0.0010581929236650467,0.0008744597434997559,0.024793267250061035,68
0.6151415109634399,0.0071942806243896484,9.974313735961914,-0.0025390502996742725,0.0027396678924560547,0.021862179040908813,81
0.636689305305481,-0.021536126732826233,9.892911911010742,-0.0032052062451839447,0.001940310001373291,0.02306126058101654,94
0.6103531122207642,1.1682510375976562e-05,9.856998443603516,0.0009249616414308548,-0.0020566582679748535,0.019996926188468933,107
0.6175357103347778,-0.004776716232299805,9.895305633544922,-0.0024058190174400806,-0.0008575320243835449,0.017732009291648865,120
0.6007763147354126,-0.03590133786201477,9.87136459350586,0.003189893439412117,-0.0013905167579650879,0.021196022629737854,133
0.6103531122207642,-0.062237560749053955,9.81869125366211,-0.0029387441463768482,-0.00032466650009155273,0.017865240573883057,146
0.6031705141067505,0.011982694268226624,9.88812255859375,-0.00014088768512010574,-0.0029892921447753906,0.023194491863250732,159
0.6223241090774536,-0.007170930504798889,9.93840217590332,-0.001073506660759449,-0.0013905167579650879,0.021595701575279236,172
0.591199517250061,-0.059843361377716064,9.921642303466797,-0.0008070440962910652,-0.0004578828811645508,0.021062791347503662,185
0.6773908138275146,-0.05505496263504028,9.897699356079102,-0.0013399692252278328,0.005004584789276123,0.022794798016548157,198
0.6223241090774536,-0.03590133786201477,9.878545761108398,-0.003071974962949753,0.001407325267791748,0.0237274169921875,211
0.6247183084487915,0.023953691124916077,9.916852951049805,-0.0037381313741207123,0.004871368408203125,0.019996926188468933,224
0.6390835046768188,0.05268412083387375,9.866575241088867,-0.007068912498652935,0.001140892505645752,0.021595701575279236,237
0.6055647134780884,-0.06942017376422882,9.880941390991211,-0.007202143780887127,0.006070494651794434,0.019597232341766357,250
0.6630256175994873,-0.002382516860961914,9.861787796020508,-0.01226493064314127,0.01139974594116211,0.02505972981452942,263
0.6342951059341431,0.002405881881713867,9.890518188476562,-0.01746094971895218,0.018194496631622314,0.02439357340335846,276
0.6319009065628052,-0.01674772799015045,9.99825668334961,-0.01972588151693344,0.01926034688949585,0.02825726568698883,289
0.6055647134780884,0.023953691124916077,9.93840217590332,-0.02092496119439602,0.015396654605865479,0.03212098777294159,302
1.4986019134521484,-0.4046083688735962,9.873758316040039,-0.017061255872249603,0.014197587966918945,0.1027335375547409,315
0.6630256175994873,-0.08378536999225616,9.890518188476562,-0.024122510105371475,0.022324681282043457,0.09433996677398682,328
0.5409212112426758,0.0646551251411438,10.036563873291016,-0.0517013743519783,0.02379024028778076,0.10180091112852097,341
0.5265560150146484,0.05028991401195526,10.024593353271484,-0.11685145646333694,0.04124349355697632,0.0896768718957901,354
0.6319009065628052,-0.05505496263504028,9.955160140991211,-0.14949311316013336,0.05056971311569214,0.10979478806257248,367
0.6390835046768188,-0.007170930504798889,10.196975708007812,-0.21557579934597015,0.059895873069763184,0.11618988960981369,380
0.4690952003002167,0.011982694268226624,10.103601455688477,-0.29351606965065,0.07162022590637207,0.11778866499662399,393
0.5313444137573242,0.0071942806243896484,10.24964714050293,-0.41129249334335327,0.08441042900085449,0.0880781039595604,406
0.47388359904289246,-0.7996516823768616,8.073318481445312,-0.7644885182380676,0.11625272035598755,-0.03196324408054352,419
0.5648633241653442,-0.5578373074531555,9.124372482299805,-0.5149464011192322,0.06242728233337402,0.02519296109676361,432
0.45473000407218933,-0.45488661527633667,9.842632293701172,-0.43820521235466003,0.057364463806152344,0.053837671875953674,445
0.44515320658683777,-0.38545477390289307,9.909671783447266,-0.4387381374835968,0.041509926319122314,0.05143950879573822,458
0.45473000407218933,-0.48361706733703613,9.890518188476562,-0.45126184821128845,0.024056673049926758,0.048508420586586,471
0.5361328125,-0.6129039525985718,9.646308898925781,-0.38024961948394775,0.008202135562896729,0.049574270844459534,484
0.47867199778556824,-0.5889618992805481,9.971920013427734,-0.38011637330055237,0.021258831024169922,0.04504440724849701,497
0.47867199778556824,-0.6105097532272339,10.094024658203125,-0.4056967496871948,0.03418225049972534,0.03958192467689514,510
0.3254431188106537,-0.6129039525985718,10.187398910522461,-0.5020229816436768,0.040843844413757324,0.008405819535255432,523
0.44515320658683777,-0.6727589964866638,10.060504913330078,-0.5563812851905823,0.03658038377761841,-0.03635987639427185,536
0.49064305424690247,-0.8714776635169983,9.658279418945312,-0.5649080872535706,0.04057729244232178,-0.04835069179534912,549
0.5193734169006348,-0.9169675707817078,9.81869125366211,-0.5387948155403137,0.03671365976333618,-0.03929096460342407,562
0.49064305424690247,-1.005553126335144,9.878545761108398,-0.5513185262680054,0.028053581714630127,-0.030764177441596985,575
0.6175357103347778,-1.1444168090820312,9.837844848632812,-0.5403935313224792,0.011133193969726562,-0.00931394100189209,588
0.5121908187866211,-1.391019582748413,9.339851379394531,-0.5090842247009277,0.001940310001373291,0.006540566682815552,601
0.5552865266799927,-1.1324458122253418,10.117965698242188,-0.5213415026664734,0.009401202201843262,0.01799847185611725,614
0.5672575235366821,-1.2784920930862427,9.897699356079102,-0.5465222001075745,0.043241918087005615,0.019996926188468933,627
0.47867199778556824,-1.3527122735977173,9.789960861206055,-0.5557151436805725,0.043908119201660156,0.04171362519264221,640
0.44754740595817566,-1.1683588027954102,10.292743682861328,-0.5882235765457153,0.055499255657196045,0.054503828287124634,653
0.5600749254226685,-1.412567377090454,10.017410278320312,-0.6953414678573608,0.055765748023986816,0.07795251905918121,666
0.514585018157959,-1.5394600629806519,10.06529426574707,-0.7662205100059509,0.07601684331893921,0.08328177034854889,679
0.4379706084728241,-1.6400165557861328,9.737287521362305,-0.7876707315444946,0.07481777667999268,0.09447319805622101,692
0.47388359904289246,-1.8100048303604126,9.720529556274414,-0.8473583459854126,0.07868146896362305,0.09580551087856293,705
0.3924807608127594,-1.7453614473342896,10.055717468261719,-0.9014502167701721,0.034049034118652344,0.10966155678033829,718
0.49782565236091614,-2.0661842823028564,9.605607986450195,-0.91970294713974,0.04284226894378662,0.11299233883619308,731
0.4595184028148651,-2.0709726810455322,9.687009811401367,-0.9151729941368103,0.07068759202957153,0.1241837665438652,744
0.5289502143859863,-2.293633460998535,9.33027458190918,-0.9626033902168274,0.09466922283172607,0.10473200678825378,757
0.33262571692466736,-2.2840566635131836,9.58405876159668,-0.9264976978302002,0.08001381158828735,0.11219295114278793,770
0.4307880103588104,-2.475592851638794,9.33266830444336,-0.903715193271637,0.061494648456573486,0.10792955756187439,783
0.4355764091014862,-2.5905144214630127,9.50984001159668,-0.9474149942398071,0.051502346992492676,0.11405818909406662,796
0.33501991629600525,-2.631215810775757,9.521810531616211,-0.9532771706581116,0.04204291105270386,0.12005359679460526,809
0.514585018157959,-2.5785434246063232,9.914459228515625,-1.0711867809295654,0.04017764329910278,0.12831392884254456,822
0.29431846737861633,-2.985557794570923,9.244083404541016,-0.9901822209358215,0.07335221767425537,0.14989739656448364,835
0.38290396332740784,-2.9759809970855713,9.244083404541016,-1.0024394989013672,0.09280401468276978,0.13670749962329865,848
0.30628952383995056,-3.2154011726379395,9.315908432006836,-0.9767258763313293,0.10452830791473389,0.12391730397939682,861
0.31347212195396423,-3.3446879386901855,9.189016342163086,-0.9760597348213196,0.0860092043876648,0.15429402887821198,874
0.29192426800727844,-3.1746997833251953,9.81629753112793,-1.0218912363052368,0.15155896544456482,0.16082236170768738,887
0.49782565236091614,-3.4596097469329834,9.469137191772461,-1.1330060958862305,0.2717335522174835,0.18467074632644653,900
0.01659110188484192,-3.5481951236724854,9.179439544677734,-1.170710563659668,0.263739675283432,0.19253139197826385,913
0.22488662600517273,-3.8091630935668945,9.09803581237793,-1.1708438396453857,0.2340291142463684,0.17561101913452148,926
0.038138896226882935,-3.7469139099121094,9.538570404052734,-1.2659708261489868,0.25015008449554443,0.170414999127388,939
0.16742578148841858,-4.086890697479248,8.954383850097656,-1.3515052795410156,0.29598161578178406,0.17148086428642273,952
-0.1893102526664734,-4.165899276733398,8.770030975341797,-1.347508430480957,0.23389586806297302,0.12564930319786072,965
-0.1414262354373932,-4.249696254730225,8.923259735107422,-1.3718897104263306,0.1387687623500824,0.09833690524101257,978
0.1386953890323639,-4.419684410095215,9.212957382202148,-1.5449570417404175,0.04737210273742676,0.12484992295503616,991
-0.07917699217796326,-4.754872798919678,8.473150253295898,-1.6050443649291992,-0.006186783313751221,0.1636202037334442,1004
0.01898530125617981,-5.044571399688721,8.00149154663086,-1.5220413208007812,-0.06947171688079834,0.1620214432477951,1017
-0.00016832351684570312,-5.082878589630127,8.315132141113281,-1.4983261823654175,-0.12316387891769409,0.20785298943519592,1030
-0.019321948289871216,-5.082878589630127,8.46117877960205,-1.4764763116836548,-0.03776264190673828,0.17920826375484467,1043
0.279953271150589,-5.262443542480469,8.61201286315918,-1.6408835649490356,0.0006079673767089844,0.14696630835533142,1056
-0.2611362934112549,-5.396518707275391,7.764466285705566,-1.5678728818893433,0.16581469774246216,0.12231852859258652,1069
-0.2994435429573059,-5.331875324249268,7.630390644073486,-1.415856122970581,-0.02590501308441162,-0.02410261332988739,1082
-0.4478840231895447,-5.394124507904053,8.363016128540039,-1.6470122337341309,-0.15247470140457153,-0.086721271276474,1095
-0.1390320062637329,-5.511440753936768,7.812350273132324,-1.6892465353012085,-0.31701529026031494,-0.1541363000869751,1108
0.2560112774372101,-5.992675304412842,7.247318744659424,-1.6821852922439575,-0.3244762420654297,-0.17678558826446533,1121
0.7109096050262451,-6.624744415283203,6.967196941375732,-1.5422924757003784,-0.20963090658187866,-0.21382391452789307,1134
0.4379706084728241,-6.830645561218262,6.634402751922607,-1.3405803442001343,0.0027396678924560547,-0.1638621687889099,1147
-0.12706100940704346,-7.050912380218506,7.290414333343506,-1.3046079874038696,0.1551562249660492,-0.0980459451675415,1160
0.31826052069664,-6.919230937957764,6.7900261878967285,-1.3726890087127686,0.2390919029712677,-0.0552787184715271,1173
-0.4670376479625702,-6.093231678009033,8.580888748168945,-1.7137610912322998,-0.0011240839958190918,-0.10577335953712463,1186
0.26079967617988586,-6.675022602081299,6.390194416046143,-1.8287396430969238,0.04937058687210083,-0.14281165599822998,1199
0.31107792258262634,-7.350187301635742,6.275272846221924,-1.6820521354675293,-0.10291266441345215,-0.20622968673706055,1212
0.4188169538974762,-7.84818172454834,5.5522236824035645,-1.3241928815841675,0.04950380325317383,-0.22115159034729004,1225
0.4164227545261383,-7.649462699890137,5.810797691345215,-1.1612510681152344,0.06895560026168823,-0.20463094115257263,1238
0.5552865266799927,-7.817056655883789,6.186687469482422,-1.010166883468628,0.18100306391716003,-0.13801532983779907,1251
0.28474166989326477,-7.893671035766602,5.9496612548828125,-1.096900463104248,0.013531386852264404,-0.19583767652511597,1264
0.15066638588905334,-8.018169403076172,6.330339431762695,-1.0036386251449585,0.24188974499702454,-0.07739511132240295,1277
0.24643447995185852,-7.867335319519043,5.619261264801025,-0.8717396855354309,0.14249923825263977,-0.04035681486129761,1290
-0.17494504153728485,-7.778749465942383,6.912130355834961,-1.0566645860671997,-0.043225109577178955,0.010537520051002502,1303
0.14348378777503967,-7.627914905548096,6.18908166885376,-1.2698345184326172,-0.008451759815216064,0.10752986371517181,1316
0.47867199778556824,-7.905642509460449,4.965644359588623,-1.2081485986709595,0.06096172332763672,0.10300000011920929,1329
1.6470423936843872,-9.282308578491211,5.427725315093994,-0.9125083684921265,0.04124349355697632,0.049707502126693726,1342
0.3661445081233978,-9.050070762634277,4.9010009765625,-0.7075988054275513,0.1389019787311554,0.08781163394451141,1355
-1.206845998764038,-8.384482383728027,5.961632251739502,-0.6484441161155701,0.15262481570243835,0.07062480598688126,1368
0.15545478463172913,-8.839381217956543,4.2689313888549805,-0.8113859295845032,0.028186798095703125,0.15669219195842743,1381
0.7037270069122314,-8.597566604614258,4.807626724243164,-0.5425252318382263,0.2676033675670624,0.40157121419906616,1394
-0.03608134388923645,-8.15703296661377,5.777278900146484,-0.662699818611145,0.10679322481155396,0.5743721723556519,1407
-1.1685388088226318,-7.35258150100708,6.885794162750244,-1.0614609718322754,-0.05961251258850098,0.4887044429779053,1420
0.08602294325828552,-8.224071502685547,6.361464023590088,-1.5878574848175049,0.26627105474472046,0.42675191164016724,1433
-0.02889874577522278,-8.504192352294922,3.9385318756103516,-1.5348315238952637,0.3145007789134979,0.2887243330478668,1446
-0.0719943642616272,-8.626296997070312,4.2689313888549805,-1.4251822233200073,0.1551562249660492,0.18107350170612335,1459
-0.6777274012565613,-8.5281343460083,3.7350246906280518,-1.5658743381500244,-0.14061719179153442,0.016399696469306946,1472
-0.3233855366706848,-8.915995597839355,4.240200996398926,-1.5357640981674194,-0.12929248809814453,0.07209035009145737,1485
-0.4837970733642578,-8.91360092163086,4.223442077636719,-1.4800734519958496,-0.13888514041900635,0.10366615653038025,1498
-0.3928174078464508,-8.88965892791748,3.933743476867676,-1.602779507637024,-0.09811639785766602,0.15083001554012299,1511
0.3876923620700836,-9.016551971435547,3.48842191696167,-1.7602587938308716,-0.020575761795043945,0.2773996889591217,1524
0.26079967617988586,-9.3637113571167,3.64643931388855,-1.644214391708374,0.15968605875968933,0.2992496192455292,1537
0.08602294325828552,-8.779525756835938,3.174781560897827,-1.6183675527572632,0.2029862403869629,0.4006385803222656,1550
-0.04565814137458801,-8.69572925567627,1.9728922843933105,-1.5303016901016235,0.16394948959350586,0.27646708488464355,1563
-6.7206926345825195,-13.905511856079102,3.069436550140381,-1.2663705348968506,-0.19017910957336426,-0.3258713483810425,1576
0.4355764091014862,-10.026905059814453,1.3264577388763428,-1.0726523399353027,0.10599386692047119,-0.37743186950683594,1589
0.47148939967155457,-8.935149192810059,1.2450549602508545,-0.9392879009246826,0.17447471618652344,-0.41207194328308105,1602
0.11475333571434021,-8.942331314086914,2.0399298667907715,-0.8638790249824524,0.20072129368782043,-0.36450839042663574,1615
-0.5532289147377014,-10.654186248779297,2.051900863647461,-0.662966251373291,0.21511027216911316,-0.19623735547065735,1628
-0.684909999370575,-9.471449851989746,1.3671592473983765,-0.9348912835121155,-0.16220062971115112,-0.4067426919937134,1641
-2.075941324234009,-9.641438484191895,1.2282955646514893,-0.8386982679367065,-0.1459464430809021,-0.356647789478302,1654
-0.4837970733642578,-9.174569129943848,1.09182608127594,-1.0522679090499878,-0.5132648944854736,-0.5466355681419373,1667
9.91422176361084,-14.386746406555176,2.8994483947753906,-1.0088346004486084,-0.2866385579109192,0.26674118638038635,1680
-0.7375824451446533,-9.636650085449219,1.8172690868377686,-1.0715864896774292,-0.5273873805999756,0.06849310547113419,1693
0.3158663213253021,-9.943107604980469,1.1636520624160767,-0.9860520362854004,-0.7409570217132568,-0.003984689712524414,1706
-0.062417566776275635,-8.983033180236816,2.537923812866211,-1.182301640510559,-0.6877977848052979,0.0830153152346611,1719
0.22009822726249695,-9.255971908569336,1.8388168811798096,-1.1984226703643799,-0.874321699142456,0.4615252614021301,1732
-3.19403338432312,-9.406806945800781,2.597778797149658,-1.4995253086090088,-0.8175649642944336,0.29005664587020874,1745
0.4140285551548004,-8.805862426757812,1.132527470588684,-2.005004644393921,-1.384997010231018,0.30471211671829224,1758
1.319036841392517,-9.586371421813965,-0.40215587615966797,-1.964235782623291,-1.383931040763855,0.17121438682079315,1771
0.7396399974822998,-9.421172142028809,-0.0071125030517578125,-1.8152832984924316,-0.9197534322738647,0.14643338322639465,1784
0.5720459222793579,-9.634255409240723,0.42384374141693115,-1.4988590478897095,-0.608791708946228,0.18120673298835754,1797
0.957512378692627,-9.097954750061035,0.28737425804138184,-1.7005711793899536,-0.7196400165557861,0.024926483631134033,1810
0.21530982851982117,-10.07718276977539,-1.6710827350616455,-1.2489173412322998,-0.06440889835357666,0.4452710747718811,1823
0.8593500852584839,-9.830580711364746,0.2969510555267334,-0.39996781945228577,0.2949157953262329,0.07728636264801025,1836
-0.3904232084751129,-9.983809471130371,-1.6351697444915771,-0.23902450501918793,0.655705988407135,0.07715313881635666,1849
-0.9482722282409668,-10.093942642211914,-2.2624504566192627,0.2908361554145813,1.0314180850982666,0.05969984829425812,1862
0.7300631999969482,-8.635873794555664,2.26737904548645,0.6513599157333374,1.3558361530303955,0.026392042636871338,1875
-0.6394201517105103,-9.878464698791504,-1.4364509582519531,0.8521393537521362,1.3554364442825317,-0.19503828883171082,1888
-2.090306520462036,-8.805862426757812,1.5347533226013184,0.5319846868515015,1.00077486038208,-0.01490965485572815,1901
0.07405191659927368,-9.753966331481934,-0.23456168174743652,0.15547318756580353,0.3017105758190155,0.035318523645401,1914
-0.2755015194416046,-9.428354263305664,0.8476174473762512,0.027437979355454445,0.18180245161056519,0.058900460600852966,1927
-0.38084638118743896,-9.354134559631348,0.5603132247924805,-0.3349509835243225,-0.07933080196380615,0.04837518930435181,1940
0.12911859154701233,-9.888041496276855,-0.7971991300582886,-0.30630624294281006,0.0745512843132019,0.01733231544494629,1953
0.36135610938072205,-9.806638717651367,-0.6272107362747192,-0.18386676907539368,0.13437214493751526,0.027724355459213257,1966
-0.0025625228881835938,-9.763543128967285,-0.5769325494766235,-0.0714196041226387,0.20884841680526733,0.05050688982009888,1979
-0.2108580768108368,-9.813820838928223,-0.8259295225143433,-0.040110260248184204,0.12917611002922058,0.04797549545764923,1992
-0.33535656332969666,-9.765936851501465,-0.45722246170043945,0.04675650596618652,0.005004584789276123,0.01040428876876831,2005
-0.03847554326057434,-9.722841262817383,-0.26808059215545654,0.08699234575033188,-0.008185267448425293,0.0026768743991851807,2018
0.014196902513504028,-9.876070022583008,-0.6631238460540771,0.10071516782045364,-0.21482694149017334,0.0014777928590774536,2031
-0.12227261066436768,-9.689322471618652,-0.323147177696228,0.12922663986682892,-0.30848854780197144,0.010937213897705078,2044
0.5504981279373169,-9.823397636413574,-0.17710089683532715,0.10018224269151688,-0.23387902975082397,0.07502143830060959,2057
0.004620075225830078,-9.61270809173584,0.35201770067214966,0.007453292608261108,-0.17379170656204224,0.09687136113643646,2070
-0.09114798903465271,-9.672563552856445,-0.31357038021087646,-0.11325420439243317,-0.19923889636993408,0.1061975508928299,2083
-0.08635959029197693,-9.821003913879395,-0.5290485620498657,-0.007601837627589703,-0.08239507675170898,0.07928483188152313,2096
-0.19170445203781128,-9.727629661560059,-0.423703670501709,0.042759574949741364,-0.07240277528762817,0.051705971360206604,2109
-0.2850783169269562,-9.64622688293457,-0.3901848793029785,0.08619295805692673,-0.021375179290771484,0.0030765682458877563,2122
0.03335049748420715,-9.753966331481934,-0.3111761808395386,0.12975956499576569,0.011666178703308105,-0.018906578421592712,2135
0.038138896226882935,-9.777908325195312,-0.4260978698730469,0.20316997170448303,0.09986525774002075,-0.020105674862861633,2148
-0.0696001648902893,-9.746783256530762,-0.15315890312194824,0.262724369764328,0.16061869263648987,-0.017973974347114563,2161
-0.23958849906921387,-9.651015281677246,0.19160616397857666,0.1541408747434616,-0.009784042835235596,-0.007581934332847595,2174
-0.08875378966331482,-9.684534072875977,0.16287577152252197,-0.061826951801776886,-0.257061243057251,0.006807044148445129,2187
-0.115090012550354,-9.694110870361328,-0.15794730186462402,-0.1490934193134308,-0.3370000123977661,0.010537520051002502,2200
0.12433019280433655,-9.768331527709961,-0.22737908363342285,-0.09193720668554306,-0.2385420799255371,0.01693260669708252,2213
0.08362874388694763,-9.677351951599121,0.019223690032958984,-0.115918830037117,-0.11397093534469604,0.02532617747783661,2226
0.13151279091835022,-9.753966331481934,-0.34708917140960693,-0.12071516364812851,-0.015379786491394043,0.024260327219963074,2239
-0.03129294514656067,-9.696505546569824,-0.20343708992004395,-0.09606737643480301,0.04550689458847046,0.014667689800262451,2252
-0.2300116866827011,-9.806638717651367,-0.5482021570205688,-0.008667686954140663,0.07921439409255981,-0.01704135537147522,2265
-0.115090012550354,-9.672563552856445,-0.15315890312194824,-0.003471669275313616,0.03698009252548218,-0.024901986122131348,2278
-0.03129294514656067,-9.787485122680664,-0.2776573896408081,0.012249616906046867,0.0645589828491211,-0.03356201946735382,2291
-0.0719943642616272,-9.7012939453125,-0.13879358768463135,-0.0013399692252278328,0.06296020746231079,0.006807044148445129,2304
0.09799394011497498,-9.713264465332031,-0.3853963613510132,0.02357427217066288,0.1305084228515625,0.020263388752937317,2317
-0.03368714451789856,-9.732418060302734,-0.2393500804901123,0.041427262127399445,0.18726491928100586,0.03411945700645447,2330
-0.06720596551895142,-9.629467010498047,0.055136680603027344,0.008385911583900452,0.17114394903182983,0.0435788631439209,2343
-0.04326394200325012,-9.629467010498047,0.031194686889648438,-0.0812787115573883,0.12278100848197937,0.07995098829269409,2356
-0.11269581317901611,-9.689322471618652,-0.14837050437927246,-0.11671822518110275,0.11998313665390015,0.058900460600852966,2369
-0.14621463418006897,-9.706082344055176,-0.20104289054870605,-0.1144532859325409,0.12517917156219482,0.019996926188468933,2382
-0.18212765455245972,-9.574400901794434,-0.1651298999786377,-0.14616233110427856,0.059362947940826416,-0.007049009203910828,2395
0.0022258758544921875,-9.88564682006836,-0.15315890312194824,-0.1867978572845459,-0.009784042835235596,0.005208253860473633,2408
-0.03129294514656067,-9.813820838928223,-0.5362311601638794,-0.12204747647047043,0.00047475099563598633,0.05863399803638458,2421
-0.060023367404937744,-9.744389533996582,-0.5577789545059204,-0.07062020897865295,-0.002856016159057617,0.04211331903934479,2434
-0.024110347032546997,-9.651015281677246,-0.23456168174743652,-0.0962006151676178,-0.14554667472839355,0.046776413917541504,2447
0.00940847396850586,-9.801850318908691,-0.6032687425613403,-0.04943645000457764,-0.10317915678024292,0.0303889662027359,2460
-0.00016832351684570312,-9.725235939025879,-0.423703670501709,-0.01293108705431223,-0.09638440608978271,0.017865240573883057,2473
-0.024110347032546997,-9.75875473022461,-0.5769325494766235,0.05141960084438324,-0.003921926021575928,0.005208253860473633,2486
-0.08396539092063904,-9.6797456741333,-0.3255413770675659,0.07300306856632233,0.0016738176345825195,0.001078099012374878,2499
-0.09593638777732849,-9.775513648986816,-0.44525146484375,0.09032312780618668,0.001140892505645752,-0.003984689712524414,2512
0.007014274597167969,-9.674957275390625,-0.34708917140960693,0.0800643190741539,-0.001656949520111084,-0.0017197579145431519,2525
-0.060023367404937744,-9.739601135253906,-0.26808059215545654,0.08939050137996674,-0.005920350551605225,0.001078099012374878,2538
0.1841852366924286,-9.686928749084473,-0.3614543676376343,0.10684379935264587,0.055499255657196045,-0.006516069173812866,2551
0.05729252099990845,-9.686928749084473,-0.10527479648590088,0.08552680164575577,0.03471517562866211,0.017065852880477905,2564
0.004620075225830078,-9.718052864074707,-0.23216748237609863,0.06620827317237854,0.05283463001251221,0.018664628267288208,2577
-0.026504546403884888,-9.710870742797852,-0.31596457958221436,0.058747321367263794,0.04937058687210083,0.019197553396224976,2590
-0.12945520877838135,-9.780302047729492,-0.3806079626083374,0.07007197290658951,0.021125614643096924,0.01453445851802826,2603
-0.03129294514656067,-9.75875473022461,-0.17949509620666504,0.11537059396505356,-0.0020566582679748535,0.014800921082496643,2616
0.0908113420009613,-9.77072525024414,-0.3518775701522827,0.1015145480632782,-0.04002755880355835,0.02945636212825775,2629
-0.06720596551895142,-9.6797456741333,-0.2130138874053955,0.10950842499732971,-0.029901981353759766,0.05437059700489044,2642
-0.12466681003570557,-9.624678611755371,-0.07654440402984619,0.06434303522109985,-0.05814701318740845,0.05277182161808014,2655
-0.05284076929092407,-9.655803680419922,0.016829490661621094,0.0027901995927095413,-0.07893109321594238,0.044511497020721436,2668
-0.016927748918533325,-9.653409957885742,-0.03584301471710205,-0.040243491530418396,-0.007252633571624756,0.047575801610946655,2681
-0.19170445203781128,-9.648621559143066,-0.15794730186462402,-0.06782235950231552,0.03231698274612427,0.026658490300178528,2694
-0.021716147661209106,-9.694110870361328,-0.28962838649749756,-0.05316691845655441,0.05962944030761719,-0.007715165615081787,2707
-0.19170445203781128,-9.725235939025879,-0.40455007553100586,-0.04464012384414673,0.0708208680152893,-0.016241952776908875,2720
0.0022258758544921875,-9.79466724395752,-0.301599383354187,0.004255743697285652,0.021125614643096924,-0.01424349844455719,2733
0.050109922885894775,-9.75875473022461,-0.3758195638656616,0.023840734735131264,-0.006586551666259766,0.014667689800262451,2746
-0.019321948289871216,-9.73720645904541,-0.3806079626083374,0.0635436475276947,-0.015779495239257812,0.03332005441188812,2759
-0.007350921630859375,-9.686928749084473,-0.07175600528717041,0.06833997368812561,-0.029369056224822998,0.04864165186882019,2772
-0.062417566776275635,-9.713264465332031,-0.2752631902694702,0.05408422648906708,-0.02883613109588623,0.0501071959733963,2785
-0.17255084216594696,-9.665380477905273,-0.29681098461151123,0.08259571343660355,-0.03709644079208374,0.04171362519264221,2798
-0.0719943642616272,-9.636650085449219,-0.06936180591583252,0.06474272161722183,-0.011382818222045898,0.04091423749923706,2811
-0.060023367404937744,-9.662986755371094,0.11978012323379517,0.030635526403784752,0.050836145877838135,0.04064777493476868,2824
-0.17494504153728485,-9.727629661560059,-0.07893860340118408,-0.031050536781549454,0.018061280250549316,0.03305359184741974,2837
-0.1629740446805954,-9.780302047729492,-0.3279355764389038,-0.02318989299237728,-0.023773372173309326,0.025459423661231995,2850
-0.09114798903465271,-9.696505546569824,-0.3542717695236206,0.027304748073220253,-0.036430299282073975,0.020263388752937317,2863
-0.15339723229408264,-9.775513648986816,-0.3303297758102417,0.0636768788099289,-0.02790355682373047,0.00614088773727417,2876
