accel_x,accel_y,accel_z,gyro_x,gyro_y,gyro_z,time
1.0724340677261353,-1.2545500993728638,9.88333511352539,-0.01373047474771738,-0.0057871341705322266,0.019996926188468933,3
1.1275006532669067,-1.237790584564209,9.694192886352539,-0.018526799976825714,-0.05028635263442993,0.01693260669708252,16
1.1945383548736572,-1.2330021858215332,9.70616340637207,-0.016528330743312836,-0.048954010009765625,0.014934137463569641,28
1.2615760564804077,-1.2593384981155396,9.555328369140625,-0.005203675478696823,-0.013914227485656738,0.019197553396224976,40
1.2879122495651245,-1.2760978937149048,9.87136459350586,0.002257273532450199,0.040044426918029785,0.027724355459213257,52
1.3118542432785034,-1.2521559000015259,9.801931381225586,0.011450229212641716,0.09293723106384277,0.03745022416114807,65
1.2304513454437256,-1.2449733018875122,9.737287521362305,0.015313934534788132,0.12224811315536499,0.038382843136787415,77
1.1059528589248657,-1.2258195877075195,9.730106353759766,0.02090964838862419,0.13117459416389465,0.04104746878147125,89
1.0532804727554321,-1.2330021858215332,9.65109634399414,0.028237367048859596,0.13970139622688293,0.03984840214252472,101
1.0676456689834595,-1.1851181983947754,9.608001708984375,0.030901988968253136,0.1353047490119934,0.03811638057231903,113
1.079616665840149,-1.2234253883361816,9.727710723876953,0.038629405200481415,0.11931699514389038,0.03878253698348999,125
1.034126877784729,-1.3646833896636963,9.655885696411133,0.053284838795661926,0.11638593673706055,0.03278714418411255,137
0.9455413818359375,-1.4748165607452393,9.5816650390625,0.10031546652317047,0.11718529462814331,0.026125580072402954,149
0.7899183034896851,-1.493970274925232,9.490686416625977,0.17772281169891357,0.11172282695770264,0.01453445851802826,161
0.5528923273086548,-1.5873440504074097,9.519416809082031,0.25699540972709656,0.11838442087173462,-0.003052070736885071,173
0.42599955201148987,-2.145192861557007,9.335062026977539,0.3300061523914337,-0.008584976196289062,-0.0354272723197937,185
0.5768343210220337,-2.9257028102874756,10.18979263305664,0.5195941925048828,-0.09438592195510864,-0.03635987639427185,197
0.9910311698913574,-6.16505765914917,12.583993911743164,0.3960888385772705,-0.17459112405776978,0.017865240573883057,209
0.14827218651771545,-9.95029067993164,8.619195938110352,0.2988300323486328,-0.2967641353607178,0.13337671756744385,221
-1.1685388088226318,-1.613680362701416,7.355057716369629,0.388361394405365,-0.22122204303741455,0.09767074882984161,233
-0.19888706505298615,-11.044440269470215,7.367028713226318,0.43032926321029663,-0.27038437128067017,0.0583675354719162,245
-0.7830722332000732,-12.344491958618164,9.792354583740234,0.32441040873527527,-0.3143506646156311,-0.009047478437423706,257
-2.6792800426483154,-13.690033912658691,7.077330112457275,0.19730781018733978,-0.4397212266921997,-0.29362937808036804,269
-2.0783355236053467,-14.827279090881348,7.716582298278809,0.015313934534788132,-0.920952558517456,-0.6476247906684875,281
-0.8309563398361206,-16.25661849975586,7.436460494995117,-0.2099801003932953,-0.7340290546417236,-0.5963308215141296,293
0.5576807260513306,-16.596593856811523,7.127608299255371,-0.21397703886032104,-0.4678330421447754,-0.26858192682266235,305
1.4459295272827148,-15.90945816040039,6.514692783355713,-0.1144532859325409,-0.3179479241371155,0.15016385912895203,317
1.3142484426498413,-9.998174667358398,6.600883960723877,0.0043889740481972694,-0.16992801427841187,0.7182618379592896,329
1.9774423837661743,-6.940779209136963,6.399771213531494,0.5526355504989624,0.0027396678924560547,1.0745222568511963,341
0.8066776990890503,-3.160334587097168,2.6384801864624023,1.1802878379821777,0.10306280851364136,1.2138822078704834,353
-0.3305681645870209,0.8475590944290161,-2.056549310684204,1.797947883605957,-0.11903363466262817,1.1447350978851318,365
0.004620075225830078,0.5530722737312317,0.1125975251197815,1.8489755392074585,-0.17698931694030762,1.1208865642547607,377
-14.482693672180176,-19.443300247192383,-18.593299865722656,4.355587959289551,-1.8514395952224731,0.71692955493927,389
-1.537245750427246,-0.7397966384887695,-0.5482021570205688,4.355587959289551,-1.627477765083313,0.9628744125366211,402
-0.5867477655410767,1.525118112564087,0.4597567915916443,4.355587959289551,-1.519027590751648,1.0170994997024536,414
13.44088077545166,2.9209377765655518,-6.921566963195801,4.355587959289551,4.247087001800537,0.8566891551017761,426
-7.154043197631836,-3.382995128631592,1.6640403270721436,3.9678850173950195,2.5935542583465576,-2.301823854446411,438
-0.3784521818161011,-0.6224807500839233,0.5651016235351562,3.96002459526062,2.6364545822143555,-2.6113200187683105,450
-0.7902548909187317,0.23224924504756927,-0.6056629419326782,4.017313480377197,2.691612720489502,-3.0393919944763184,462
-0.2731073200702667,1.0079705715179443,-0.08372700214385986,3.9793431758880615,2.657771587371826,-2.8728530406951904,474
-0.19170445203781128,1.2689385414123535,0.08147293329238892,4.064477443695068,2.5903568267822266,-2.78678560256958,486
15.363424301147461,19.78270149230957,12.871297836303711,-3.721156120300293,4.985588073730469,0.06889279931783676,498
9.708319664001465,8.116354942321777,10.314291000366211,-2.7825422286987305,3.451030731201172,1.2333338260650635,510
0.49543145298957825,4.0533952713012695,2.181187629699707,-3.5913889408111572,1.9926815032958984,2.6105453968048096,522
-11.643170356750488,3.823551893234253,1.7717792987823486,-2.999176263809204,-2.0923218727111816,1.65181303024292,534
-20.0132999420166,9.30866813659668,20.632701873779297,-4.375721454620361,-3.7457213401794434,0.046909645199775696,546
-20.0132999420166,9.31106185913086,20.632701873779297,-4.375721454620361,-3.7457213401794434,-0.6320367455482483,558
-20.0132999420166,-2.080549478530884,3.0359177589416504,-2.001007556915283,-3.7457213401794434,-3.636800765991211,570
-16.615928649902344,5.652721881866455,20.632701873779297,-2.253880500793457,-3.7457213401794434,-4.175721168518066,582
4.0173020362854,10.232830047607422,8.980720520019531,-2.827174663543701,1.7423399686813354,-4.175721168518066,594
-1.2643067836761475,-10.788261413574219,-12.854398727416992,-0.5394609570503235,-2.6392359733581543,-3.961751937866211,606
-1.1829040050506592,-0.1699766367673874,-0.11724579334259033,0.2500673830509186,-3.7457213401794434,-4.175721168518066,618
-4.02003288269043,1.4365326166152954,17.6549129486084,-0.9642021656036377,-3.7457213401794434,-4.1631975173950195,630
1.1610195636749268,1.0414893627166748,3.814033269882202,-0.6953414678573608,-3.7457213401794434,-4.031165599822998,642
6.363619804382324,-0.10772739350795746,8.401323318481445,-1.2915513515472412,-3.7457213401794434,-3.010214328765869,654
10.244621276855469,-0.3806663751602173,12.703704833984375,-1.8163491487503052,-3.7457213401794434,-0.8344150185585022,666
11.930139541625977,0.19394201040267944,7.0533881187438965,-1.6113063097000122,-3.7457213401794434,0.510154664516449,678
5.35087251663208,0.009588494896888733,1.4940519332885742,-0.6453797817230225,-3.7457213401794434,0.9318315982818604,690
8.132935523986816,0.5818026661872864,5.657568454742432,1.195076584815979,-3.4876527786254883,0.9595436453819275,702
12.033089637756348,-0.41179096698760986,6.086130619049072,0.8233614563941956,-1.6799708604812622,1.8364715576171875,714
11.738602638244629,0.272950679063797,6.162744998931885,0.8412144184112549,1.6460137367248535,2.9065849781036377,726
10.46967601776123,3.641592502593994,-2.6814358234405518,1.7317320108413696,4.985588073730469,3.1899678707122803,738
6.282217025756836,0.7661562561988831,6.078948020935059,1.0014915466308594,4.985588073730469,3.8205513954162598,750
-15.191377639770508,-0.5051648616790771,12.435554504394531,0.8466768860816956,4.985588073730469,1.5680108070373535,762
-5.324872970581055,-0.9696399569511414,7.8291096687316895,0.10764318704605103,3.3432464599609375,0.4057013988494873,774
3.0237083435058594,-0.2753215432167053,4.436525821685791,0.7018545269966125,4.985588073730469,0.22437365353107452,786
0.4212111532688141,0.6392635107040405,4.118097305297852,1.4813904762268066,4.985588073730469,0.23223429918289185,798
-0.7495534420013428,1.326399326324463,2.0423240661621094,2.2148284912109375,4.985588073730469,-0.05021592974662781,810
-1.9777789115905762,3.6296215057373047,9.878545761108398,1.570122480392456,2.6793551445007324,-0.4072756767272949,822
11.798458099365234,-3.885777473449707,20.632701873779297,1.078232765197754,4.985588073730469,0.542130172252655,834
5.020472526550293,-5.322298526763916,7.465190887451172,0.35398775339126587,4.985588073730469,0.7387794852256775,846
0.6007763147354126,0.7350316047668457,11.027763366699219,-0.18906278908252716,4.985588073730469,1.0208300352096558,858
19.21270179748535,9.818633079528809,8.149932861328125,-3.303609609603882,4.985588073730469,4.432082653045654,870
3.2032735347747803,6.840246200561523,3.260972738265991,-3.6226983070373535,3.495929718017578,4.555588245391846,882
-12.359037399291992,-8.0325345993042,-12.004457473754883,1.5301531553268433,4.985588073730469,4.555588245391846,894
19.21270179748535,15.840049743652344,18.68681526184082,0.7646064162254333,4.985588073730469,4.555588245391846,906
4.5895161628723145,5.9974870681762695,-1.723755121231079,0.8781194686889648,4.985588073730469,4.555588245391846,918
1.4339585304260254,2.695882797241211,0.49566978216171265,0.7799280285835266,4.985588073730469,4.555588245391846,930
-10.958429336547852,9.715682029724121,-8.45625114440918,-0.14136600494384766,4.985588073730469,4.555588245391846,942
-0.021716147661209106,5.614414691925049,-0.5601731538772583,-1.4862021207809448,4.985588073730469,4.555588245391846,954
-1.472602367401123,5.76046085357666,-4.522576808929443,-1.7372097969055176,4.985588073730469,4.555588245391846,966
-20.0132999420166,1.0295183658599854,10.436395645141602,-3.8140182495117188,4.985588073730469,4.555588245391846,978
-20.0132999420166,-8.755583763122559,-18.593299865722656,-3.113754987716675,4.985588073730469,2.841834783554077,990
-20.0132999420166,13.541616439819336,20.632701873779297,-4.375721454620361,4.985588073730469,0.7283874154090881,1002
-1.8006079196929932,3.4165375232696533,4.01993465423584,-4.004672527313232,4.985588073730469,-0.3840934634208679,1014
-20.0132999420166,6.998263359069824,19.10819435119629,-2.3901760578155518,1.7102311849594116,-0.6967871785163879,1026
-0.19170445203781128,1.1516226530075073,0.25385546684265137,-1.4498300552368164,-0.37137359380722046,-0.5170581936836243,1038
-8.399027824401855,1.4365326166152954,10.685392379760742,-2.3903093338012695,-2.943269729614258,-1.2971270084381104,1050
-6.069469928741455,-6.596014022827148,-5.154646396636963,-1.4437012672424316,-3.7457213401794434,-1.1225941181182861,1062
-13.242497444152832,-0.3064461350440979,14.74835205078125,-2.111189842224121,-3.7457213401794434,-1.4571378231048584,1074
-5.1548848152160645,-0.5027706623077393,7.237741947174072,-1.6158361434936523,-3.7457213401794434,-1.6934900283813477,1086
-0.7136404514312744,0.48842883110046387,-0.754103422164917,-1.1163522005081177,-3.7457213401794434,-1.8397777080535889,1098
-2.1645267009735107,2.032688856124878,1.4844751358032227,-0.6118054986000061,-3.7457213401794434,-1.9674134254455566,1110
19.21270179748535,-3.4835517406463623,14.49696159362793,-0.4965604841709137,-3.7457213401794434,-0.9868316054344177,1122
-0.15100303292274475,-0.3830605745315552,-0.9671874046325684,-0.009733537212014198,-3.7457213401794434,-0.8512021899223328,1134
6.966958522796631,3.6176505088806152,5.171545505523682,0.2954992353916168,-3.7457213401794434,-0.33266615867614746,1146
13.460034370422363,-0.7709212303161621,6.296820640563965,0.21822510659694672,-3.7457213401794434,0.595422625541687,1158
4.194472789764404,-0.014353528618812561,1.4892635345458984,1.411177635192871,-3.7457213401794434,0.8749417662620544,1170
4.000542640686035,-1.8291584253311157,1.90585458278656,1.700822353363037,-3.7457213401794434,1.3110074996948242,1182
3.210456132888794,-0.18434186279773712,3.260972738265991,1.9520964622497559,-3.7457213401794434,1.4311821460723877,1194
-1.4031704664230347,8.21212387084961,20.632701873779297,1.4490153789520264,-2.6942601203918457,1.2794318199157715,1206
-5.001655578613281,4.673493385314941,20.176008224487305,-0.04064318537712097,-1.4707978963851929,0.5009616613388062,1218
-1.616254448890686,5.444426536560059,20.632701873779297,-2.016995429992676,-1.1069432497024536,0.04917457699775696,1230
-20.0132999420166,19.78270149230957,-18.593299865722656,4.355587959289551,-3.7457213401794434,-4.175721168518066,1242
7.4386162757873535,2.71982479095459,20.632701873779297,4.355587959289551,-3.227451801300049,-3.902064323425293,1254
-5.320084571838379,-9.902406692504883,10.242464065551758,4.355587959289551,-2.8886446952819824,-4.175721168518066,1266
9.875913619995117,7.623149871826172,20.401063919067383,2.585078239440918,-2.062344551086426,-4.175721168518066,1278
-6.689568042755127,19.069828033447266,14.686103820800781,0.9464670419692993,-3.4582085609436035,-3.3447580337524414,1290
19.21270179748535,5.609626293182373,20.632701873779297,-2.244554281234741,-3.7457213401794434,-1.6278071403503418,1302
-1.0560113191604614,19.78270149230957,8.84664535522461,-1.8664439916610718,-3.7457213401794434,-1.0101470947265625,1314
-3.3903579711914062,13.508097648620605,19.206356048583984,-1.1870980262756348,-3.7457213401794434,-1.041323184967041,1326
0.23685762286186218,2.9903697967529297,11.408441543579102,-0.6170015335083008,-3.7457213401794434,-0.6311041712760925,1338
5.132999897003174,11.473026275634766,9.538570404052734,-0.42967838048934937,-3.7457213401794434,-0.8586631417274475,1350
5.7147908210754395,8.64068603515625,9.014239311218262,-0.9808560013771057,-3.7457213401794434,-0.48734766244888306,1362
11.415386199951172,7.3909125328063965,5.413360118865967,-0.47417759895324707,-3.7457213401794434,-0.4243292808532715,1374
9.670012474060059,9.46907901763916,6.993533134460449,-0.19266003370285034,-3.7457213401794434,-0.24086984992027283,1386
7.383549690246582,9.208111763000488,7.3191447257995605,-0.030384380370378494,-3.7060184478759766,-0.09751302003860474,1398
6.667683124542236,7.103608131408691,6.694258213043213,0.19943951070308685,-2.8033766746520996,0.10033537447452545,1410
8.695572853088379,7.156280517578125,6.770872592926025,0.20969831943511963,-1.9618881940841675,0.5329371690750122,1422
8.599804878234863,6.325492858886719,3.6320741176605225,0.5370475053787231,-1.2251194715499878,0.960875928401947,1434
9.356371879577637,7.599207878112793,7.335904121398926,0.5986002683639526,-0.5408438444137573,1.4518330097198486,1446
7.050755500793457,4.774049758911133,6.3470988273620605,0.4587075114250183,0.16914546489715576,1.8632512092590332,1458
6.837671756744385,3.864253282546997,5.734183311462402,0.4655022919178009,0.8334364891052246,2.1435697078704834,1470
8.1544828414917,5.717365264892578,5.554617881774902,0.46430322527885437,1.6132389307022095,2.4821102619171143,1482
5.92787504196167,4.328728199005127,6.033458232879639,0.33919909596443176,2.4215526580810547,2.7972023487091064,1494
6.411503791809082,2.8802363872528076,6.557788372039795,0.10870902985334396,3.307274341583252,2.9680047035217285,1506
5.743521690368652,3.2776739597320557,5.233795166015625,-0.1999877542257309,4.174343109130859,3.1859710216522217,1518
6.296582221984863,3.7948215007781982,4.695099830627441,-0.2871209681034088,4.985588073730469,2.965606451034546,1530
3.6869020462036133,3.603285312652588,4.699888229370117,-0.46645021438598633,4.985588073730469,2.7841455936431885,1542
2.6166939735412598,3.6320157051086426,5.880229473114014,-0.6272603273391724,4.985588073730469,2.5102221965789795,1554
0.9862427711486816,2.1116976737976074,3.9864158630371094,-0.5511852502822876,4.985588073730469,2.2287044525146484,1566
2.233621835708618,1.5107529163360596,3.7015058994293213,-0.3595987558364868,4.985588073730469,1.9367947578430176,1578
-0.5340753197669983,5.566530704498291,12.129095077514648,1.3016616106033325,4.985588073730469,1.6815237998962402,1590
2.262352228164673,0.12690436840057373,8.887346267700195,1.2167932987213135,4.985588073730469,1.9129464626312256,1602
3.5264906883239746,2.580961227416992,8.784396171569824,1.0474563837051392,4.985588073730469,2.153961658477783,1614
0.1650315821170807,1.9704396724700928,8.815521240234375,1.016280174255371,4.985588073730469,2.3121070861816406,1626
-0.88841712474823,2.808410406112671,8.135567665100098,0.7727335691452026,4.985588073730469,2.2253737449645996,1638
3.0045547485351562,17.369945526123047,3.7254478931427,0.5591638684272766,4.985588073730469,2.0642969608306885,1650
-0.30902034044265747,6.983898162841797,4.486804008483887,0.4440520703792572,4.023525238037109,1.857921838760376,1662
-1.7886369228363037,1.6089152097702026,8.501880645751953,0.17532464861869812,2.86721134185791,1.6671347618103027,1674
-1.3169792890548706,3.6104679107666016,10.881717681884766,-0.13190658390522003,1.7863062620162964,1.486340045928955,1686
-1.838915228843689,3.0813493728637695,9.138738632202148,0.07593414932489395,0.5536508560180664,1.241194486618042,1698
3.0045547485351562,10.491403579711914,8.272037506103516,0.624713659286499,2.271667718887329,0.6200704574584961,1710
1.0963760614395142,5.568924903869629,8.291191101074219,0.8345528244972229,3.4907336235046387,0.2957856059074402,1722
-2.3201498985290527,3.2082419395446777,9.792354583740234,0.974445641040802,3.0464072227478027,0.010137826204299927,1734
-1.3911994695663452,5.585684299468994,9.70376968383789,0.7523491978645325,2.2843246459960938,0.09660489112138748,1746
-2.516474485397339,4.424496650695801,9.545751571655273,0.4784257411956787,1.448831558227539,0.08501377701759338,1758
-2.1645267009735107,4.134798049926758,9.679826736450195,0.29310110211372375,0.47717612981796265,0.04224655032157898,1770
-2.4326772689819336,5.614414691925049,8.829885482788086,0.09831699728965759,-0.5292526483535767,-0.03436140716075897,1782
-1.9897499084472656,7.18501091003418,8.446813583374023,-0.13763554394245148,-1.4922481775283813,-0.08512252569198608,1794
-1.9873557090759277,5.765249252319336,8.509062767028809,-0.4340750277042389,-2.364246368408203,-0.22474884986877441,1806
-1.8508862257003784,5.01347017288208,8.442025184631348,-0.5713031888008118,-3.41837215423584,-0.3124150037765503,1818
-1.9634137153625488,4.194653034210205,9.852210998535156,-0.830304741859436,-3.7457213401794434,-0.37583303451538086,1830
-1.6090718507766724,4.975162982940674,9.665462493896484,-0.9514119029045105,-3.7457213401794434,-0.4142036437988281,1842
-0.9027823209762573,2.83235239982605,6.4787797927856445,-0.4436676800251007,-3.7457213401794434,-0.5050674080848694,1854
0.7635819911956787,4.903337001800537,7.034234523773193,-0.47111332416534424,-3.3490920066833496,-0.614183783531189,1866
1.419593334197998,5.516252517700195,8.243307113647461,-0.3240260183811188,-2.0542173385620117,-0.6492235660552979,1878
1.6829553842544556,5.506675720214844,8.422871589660645,-0.22503523528575897,-0.8101041316986084,-0.63936448097229,1890
0.4427590072154999,5.159516334533691,8.801155090332031,-0.1044609472155571,-0.28170907497406006,-0.6171148419380188,1902
0.0692635178565979,2.9209377765655518,10.043746948242188,-0.18959571421146393,-1.005820870399475,-0.5122618675231934,1914
0.5241618156433105,5.257678508758545,8.657503128051758,-0.3170979917049408,-1.7174087762832642,-0.4058101177215576,1926
0.1386953890323639,4.644762992858887,9.15310287475586,-0.42474883794784546,-2.4317946434020996,-0.28989893198013306,1938
1.0389152765274048,4.424496650695801,8.595253944396973,-0.3827809989452362,-2.6125898361206055,-0.25565850734710693,1950
1.3693150281906128,5.6646928787231445,7.120425701141357,-0.2984456419944763,-1.9646860361099243,-0.2940290868282318,1962
1.3118542432785034,3.2872507572174072,9.15070915222168,-0.20291884243488312,-1.4823888540267944,-0.19637060165405273,1974
1.4890251159667969,2.9688217639923096,9.299148559570312,-0.16135069727897644,-1.2384426593780518,-0.07073354721069336,1986
1.5369092226028442,5.49949312210083,8.082895278930664,-0.012797855772078037,-0.3755037784576416,-0.06593722105026245,1998
1.6661959886550903,4.819539546966553,8.209787368774414,0.022375190630555153,0.3087718188762665,-0.02197091281414032,2010
1.3381904363632202,4.096490859985352,9.081277847290039,-0.06902143359184265,-0.4318605661392212,0.09327412396669388,2022
1.630282998085022,3.823551893234253,8.899317741394043,-0.004937212448567152,-0.019110262393951416,0.1853369027376175,2035
1.783511996269226,4.067760467529297,9.019027709960938,-0.00986676849424839,-0.16353291273117065,0.2919218838214874,2047
1.6614075899124146,5.159516334533691,8.542581558227539,-0.010399693623185158,-0.22974884510040283,0.36373353004455566,2059
1.9319525957107544,4.520264625549316,8.810731887817383,-0.009733537212014198,-0.05175185203552246,0.37892189621925354,2071
1.7595700025558472,4.036635875701904,9.339851379394531,-0.07395099103450775,-0.09625113010406494,0.3397518992424011,2083
1.8768857717514038,5.109238147735596,8.023039817810059,-0.02239050529897213,0.3804502487182617,0.23063552379608154,2095
1.5177556276321411,4.424496650695801,8.353439331054688,-0.04330781102180481,-0.053217411041259766,0.15949004888534546,2107
2.0061726570129395,3.931290864944458,9.138738632202148,-0.025987748056650162,-0.024039804935455322,0.14616692066192627,2119
2.106729030609131,3.7158126831054688,8.580888748168945,-0.017061255872249603,0.09280401468276978,0.24569065868854523,2131
1.9223755598068237,4.259296417236328,8.84664535522461,-0.0764823853969574,-0.2369433045387268,0.374258816242218,2143
1.91519296169281,4.288026809692383,9.016633987426758,-0.08580857515335083,-0.1131715178489685,0.4386094808578491,2155
2.013355255126953,4.304786205291748,9.059728622436523,-0.06835527718067169,0.25174883008003235,0.427418053150177,2167
1.7787235975265503,4.26887321472168,8.12598991394043,-0.02998468466103077,0.3279571235179901,0.37532466650009155,2179
1.5177556276321411,4.036635875701904,8.793972969055176,-0.025987748056650162,0.1105237603187561,0.31950074434280396,2191
1.6925324201583862,3.821157693862915,8.820308685302734,-0.058229707181453705,0.26493874192237854,0.27340275049209595,2203
1.522544026374817,4.450832843780518,9.177045822143555,-0.04850383102893829,-0.1891133189201355,0.2515528202056885,2215
1.5033904314041138,3.9935402870178223,8.920866012573242,-0.021324655041098595,0.07668304443359375,0.298583447933197,2227
1.4555063247680664,4.067760467529297,8.36062240600586,-0.061160795390605927,-0.31648242473602295,0.30964165925979614,2240
1.3956513404846191,4.987133979797363,8.504274368286133,-0.030384380370378494,-0.03190046548843384,0.28632616996765137,2252
1.7260512113571167,5.279226303100586,7.781225681304932,-0.01373047474771738,0.09573507308959961,0.2580811679363251,2264
1.10116446018219,3.9384734630584717,8.590465545654297,0.014781011268496513,0.09320366382598877,0.2459571212530136,2276
1.3453730344772339,3.1914825439453125,8.954383850097656,-0.021591119468212128,-0.035630881786346436,0.21038438379764557,2288
1.175384759902954,3.399778127670288,8.959173202514648,0.04355895519256592,0.08227872848510742,0.10926187038421631,2300
1.5967642068862915,4.568148612976074,8.408506393432617,0.013848390430212021,0.09386980533599854,0.09567227959632874,2312
1.6326771974563599,4.596879005432129,8.643138885498047,0.014114854857325554,0.0660245418548584,0.09327412396669388,2324
1.3477672338485718,3.4165375232696533,9.181833267211914,0.01931087300181389,-0.06654053926467896,0.08781163394451141,2336
1.8577321767807007,4.094096660614014,8.798761367797852,0.01598009094595909,-0.09252065420150757,0.11618988960981369,2348
1.7140802145004272,3.9887518882751465,9.184226989746094,0.043292492628097534,0.10066461563110352,0.10140122473239899,2360
1.9678655862808228,4.819539546966553,8.940019607543945,0.037163861095905304,-0.045356810092926025,0.09873659908771515,2372
1.9870191812515259,4.678281784057617,8.889740943908691,0.0471561998128891,0.11345481872558594,0.04317918419837952,2384
1.9918075799942017,3.7445433139801025,8.88016414642334,-0.0032052062451839447,0.046173095703125,0.046909645199775696,2396
2.300659418106079,4.072548866271973,8.877769470214844,-0.026254210621118546,-0.020042896270751953,0.0782189890742302,2408
2.3198130130767822,3.952838659286499,8.959173202514648,-0.00040735118091106415,0.1254456341266632,0.13857273757457733,2420
2.3748795986175537,4.189864635467529,8.782001495361328,0.006387442350387573,-0.009917259216308594,0.15962328016757965,2432
2.257563829421997,3.8115808963775635,8.69820499420166,-0.014263398945331573,-0.02017611265182495,0.19066615402698517,2445
2.5616273880004883,3.5434303283691406,9.191410064697266,0.02277488447725773,0.07228636741638184,0.24156048893928528,2457
2.5975403785705566,4.484351634979248,8.355834007263184,-0.01053292490541935,0.2144441306591034,0.2376967817544937,2469
2.547262191772461,3.7924273014068604,9.16507339477539,-0.09033843874931335,-0.05761408805847168,0.34228330850601196,2481
2.786682367324829,4.039030075073242,8.956778526306152,-0.0237228162586689,0.44426798820495605,0.3434823751449585,2493
2.480224609375,3.6559576988220215,8.918471336364746,-0.028385911136865616,0.16394948959350586,0.41662633419036865,2505
2.80823016166687,4.146769046783447,9.069305419921875,-0.05103521794080734,0.16315007209777832,0.4845742881298065,2517
2.851325750350952,3.4141433238983154,9.203380584716797,-0.04623889923095703,0.029785573482513428,0.5406646132469177,2529
2.5975403785705566,3.756514310836792,9.335062026977539,-0.04916998744010925,0.33048853278160095,0.5947564840316772,2541
2.298265218734741,4.333516597747803,8.377382278442383,-0.037445634603500366,0.27759572863578796,0.6525788307189941,2553
1.9271639585494995,4.130009651184082,8.267248153686523,-0.034647777676582336,0.21231243014335632,0.6625711917877197,2565
2.480224609375,4.213806629180908,8.37259292602539,-0.03717917203903198,0.5969510078430176,0.6608392000198364,2577
1.984624981880188,4.264084815979004,8.42765998840332,-0.040776416659355164,0.47211331129074097,0.6857534646987915,2589
1.9654713869094849,3.3064043521881104,8.33668041229248,-0.09713322669267654,0.03844565153121948,0.7318514585494995,2601
1.8098481893539429,3.4309027194976807,9.423648834228516,-0.06342572718858719,0.18033692240715027,0.7338498830795288,2613
2.5137434005737305,4.910519599914551,8.535398483276367,-0.15495559573173523,0.4256156086921692,0.7457075119018555,2625
2.2072856426239014,4.450832843780518,8.511457443237305,-0.19798928499221802,0.0873415470123291,0.799932599067688,2637
2.082787036895752,3.4859695434570312,9.801931381225586,-0.07661561667919159,0.41615623235702515,0.7567656636238098,2649
1.5680338144302368,3.847493886947632,9.117189407348633,-0.034514546394348145,0.4381393790245056,0.7247902154922485,2661
