accel_x,accel_y,accel_z,gyro_x,gyro_y,gyro_z,time
-0.6777274012565613,-3.184276580810547,9.232110977172852,0.32654210925102234,0.043241918087005615,0.06875957548618317,3
-0.9386954307556152,-3.1938533782958984,9.22014045715332,0.4178055226802826,0.02365696430206299,0.05636906623840332,16
-0.9195417165756226,-2.779656410217285,9.610395431518555,0.45804134011268616,-0.06360948085784912,0.012802451848983765,29
-0.5867477655410767,-2.7293782234191895,10.06529426574707,0.34972435235977173,0.046572744846343994,0.04877488315105438,41
-0.8429273366928101,-2.6814942359924316,9.588848114013672,0.25899386405944824,0.0335160493850708,0.020396634936332703,54
-0.4837970733642578,-2.4013724327087402,10.340627670288086,0.05941347777843475,0.06256049871444702,0.03958192467689514,66
-0.8525041341781616,-2.8347229957580566,9.517021179199219,-0.08447626233100891,0.06762325763702393,0.058900460600852966,78
-0.9339070320129395,-3.004711389541626,8.978326797485352,-0.03784532845020294,0.03391575813293457,-0.011712104082107544,90
-0.7040636539459229,-2.9113376140594482,8.896923065185547,0.10058192908763885,-0.045356810092926025,-0.0017197579145431519,102
-0.9123591184616089,-2.7700796127319336,9.404495239257812,0.1741255819797516,-0.09332001209259033,-0.0013200640678405762,114
-0.8405331373214722,-2.722195625305176,9.615184783935547,0.14068453013896942,-0.09505206346511841,-0.03782542049884796,126
-0.6585737466812134,-2.743743419647217,9.464349746704102,0.11510413140058517,-0.07613325119018555,-0.060208261013031006,138
-0.6274491548538208,-2.6575522422790527,9.488290786743164,0.13175803422927856,-0.06640732288360596,-0.051415011286735535,150
-0.660968005657196,-2.805992603302002,9.447589874267578,0.13695405423641205,-0.07413476705551147,-0.04208880662918091,162
-0.6106897592544556,-2.8107810020446777,9.660673141479492,0.12216538935899734,-0.02537214756011963,-0.05154824256896973,174
-0.6250549554824829,-2.9496448040008545,8.966355323791504,0.17519141733646393,0.0003414750099182129,-0.044753432273864746,186
-0.6394201517105103,-2.7509260177612305,9.562511444091797,0.27165085077285767,-0.019909679889678955,-0.024502292275428772,198
-0.45267245173454285,-2.379824638366699,9.957555770874023,0.16200152039527893,0.030584990978240967,0.021862179040908813,210
-0.7088520526885986,-2.8610591888427734,9.086065292358398,0.21822510659694672,0.06229400634765625,0.051173046231269836,222
-0.7591302394866943,-2.918520212173462,9.236900329589844,0.3202802538871765,-0.009917259216308594,0.05969984829425812,234
-0.5723825097084045,-2.7006478309631348,9.643915176391602,0.30975496768951416,0.052701354026794434,0.050373658537864685,246
-0.7303998470306396,-2.3295464515686035,10.036563873291016,0.1558728814125061,0.0497702956199646,0.060898929834365845,258
-0.8979939222335815,-2.602485418319702,9.715740203857422,0.09525267779827118,0.01712864637374878,0.022261857986450195,270
-0.6370259523391724,-2.5785434246063232,9.488290786743164,0.09392036497592926,0.023257315158843994,-0.005317002534866333,282
-0.845321536064148,-2.4588334560394287,8.51863956451416,0.18198621273040771,-0.08092951774597168,0.019064322113990784,295
-0.7088520526885986,-2.4229204654693604,9.813901901245117,0.177323117852211,-0.05375039577484131,0.003609493374824524,307
-0.541257917881012,-2.4875638484954834,9.751653671264648,0.08419448882341385,-0.01458042860031128,0.023194491863250732,319
-0.7351882457733154,-2.492352247238159,9.50984001159668,0.08552680164575577,-0.033232808113098145,0.04717610776424408,331
-0.7112462520599365,-2.7988100051879883,9.208169937133789,0.14334915578365326,-0.03856205940246582,0.01733231544494629,343
-0.7112462520599365,-2.492352247238159,9.69179916381836,0.15467381477355957,-0.07813167572021484,-0.02969832718372345,355
-0.6561795473098755,-2.4588334560394287,9.698980331420898,0.13349004089832306,-0.05854666233062744,-0.05834303796291351,367
-0.9458780288696289,-2.4875638484954834,9.768413543701172,0.12149923294782639,-0.07147014141082764,-0.08512252569198608,379
-0.7830722332000732,-2.492352247238159,9.701375961303711,0.09898315370082855,-0.011116385459899902,-0.17185604572296143,391
-0.016927748918533325,-2.2146248817443848,9.854604721069336,0.022375190630555153,0.1122557520866394,-0.13535070419311523,404
-0.03608134388923645,-2.2649030685424805,9.754047393798828,-0.02785298600792885,0.06402605772018433,0.02079632878303528,416
-0.4814028739929199,-2.3463058471679688,9.667856216430664,-0.033049002289772034,0.05816388130187988,0.10313322395086288,428
-0.541257917881012,-2.499534845352173,9.368581771850586,0.0029234299436211586,0.06882238388061523,0.1721470057964325,440
-0.7136404514312744,-2.3774304389953613,9.619972229003906,0.004655436612665653,0.05922967195510864,0.1672174632549286,452
-0.9243302345275879,-2.3750362396240234,9.715740203857422,-0.021591119468212128,0.028986215591430664,0.12871363759040833,464
-0.9458780288696289,-2.4205262660980225,9.514627456665039,-0.018393568694591522,0.01966005563735962,0.08488055318593979,476
-0.8572925329208374,-2.432497262954712,9.359004974365234,0.01318223774433136,0.01952683925628662,0.05636906623840332,488
-0.8381389379501343,-2.410949468612671,9.428436279296875,0.04995405673980713,-0.0048545002937316895,0.022128641605377197,500
-0.6968810558319092,-2.382218837738037,9.63673210144043,0.051686063408851624,-0.02856963872909546,0.019330784678459167,512
-0.6418143510818481,-2.3678536415100098,9.63433837890625,0.03383307904005051,-0.01378101110458374,0.03345330059528351,524
-0.8237737417221069,-2.3103928565979004,9.629549026489258,0.0158468596637249,-0.0329662561416626,0.028523743152618408,536
-0.845321536064148,-2.7102246284484863,8.748483657836914,0.054617151618003845,-0.11610257625579834,0.015467077493667603,548
-0.8237737417221069,-2.1308276653289795,10.833833694458008,-0.2804594039916992,0.12677794694900513,-0.10977029800415039,560
-1.2978256940841675,-2.3271522521972656,10.232887268066406,-0.6127381324768066,0.023257315158843994,-0.15280398726463318,572
-1.2906430959701538,-2.8419055938720703,8.382169723510742,-0.5134808421134949,-0.025105714797973633,-0.31681162118911743,584
-0.1845218539237976,-3.2561025619506836,7.278443336486816,0.0075865238904953,-0.07000458240509033,-0.31841039657592773,596
0.47388359904289246,-3.8809890747070312,5.777278900146484,0.753814697265625,-0.17845481634140015,0.1359081119298935,608
-0.6777274012565613,-2.23138427734375,11.564064025878906,0.7291669845581055,0.20551761984825134,0.14936447143554688,620
-1.8197616338729858,-2.080549478530884,11.487449645996094,0.32960644364356995,-0.2925007939338684,0.05090658366680145,632
-0.7256114482879639,-1.9249266386032104,9.828268051147461,0.09272128343582153,-0.1759234070777893,-0.02343645691871643,644
0.514585018157959,-2.3271522521972656,8.765242576599121,0.2872389256954193,0.2621408998966217,0.0041424185037612915,656
0.1339069902896881,-2.0613958835601807,9.57927131652832,0.4509800970554352,0.22963246703147888,0.26514241099357605,668
-0.8812345266342163,-2.4157378673553467,9.952766418457031,0.2994961738586426,0.4944961667060852,0.21464776992797852,680
-2.0400280952453613,-2.207442283630371,9.143526077270508,0.41234302520751953,0.007669210433959961,0.12245175987482071,692
-1.2188169956207275,-2.4636218547821045,8.820308685302734,0.776597261428833,-0.12769371271133423,-0.009713634848594666,704
-0.17733924090862274,-1.491576075553894,10.055717468261719,0.7400919198989868,0.1599525511264801,-0.0306309312582016,716
-0.4814028739929199,-1.9632338285446167,8.980720520019531,0.7908530235290527,0.1468958556652069,0.13937212526798248,728
-1.4558429718017578,-1.6950831413269043,9.303937911987305,0.9592573046684265,0.006203711032867432,0.018398165702819824,740
-0.7160346508026123,-1.4460861682891846,9.473926544189453,1.0843614339828491,-0.07013779878616333,-0.02330322563648224,752
-0.7591302394866943,-1.7669092416763306,9.373369216918945,1.068640112876892,-0.06374269723892212,-0.044353753328323364,764
-0.6681506037712097,-1.1348400115966797,10.939178466796875,1.0320014953613281,-0.06933838129043579,-0.035294026136398315,776
-0.6322375535964966,-0.5458663105964661,10.419635772705078,0.6694793105125427,-0.014846861362457275,-0.02929861843585968,789
-0.4646434485912323,-1.33834707736969,10.01262092590332,0.7755314111709595,-0.0033889412879943848,0.019064322113990784,801
-0.8548983335494995,-1.1396284103393555,10.489067077636719,0.7042526602745056,-0.034165382385253906,0.006407350301742554,813
-0.9458780288696289,-1.149205207824707,10.170639038085938,0.5646263360977173,0.03618067502975464,-0.0931164026260376,825
-1.2475473880767822,-1.0223125219345093,10.220916748046875,0.46656814217567444,0.03937828540802002,-0.2592557370662689,837
-1.0416460037231445,-0.6464227437973022,10.651872634887695,0.36091580986976624,0.05043649673461914,-0.3678392171859741,849
-0.6729390025138855,-0.6607879996299744,10.364568710327148,0.1590704470872879,0.13930168747901917,-0.44018375873565674,861
-0.232405886054039,-0.8786603808403015,10.050928115844727,0.04169371724128723,0.145163893699646,-0.38729095458984375,873
-0.1629740446805954,-0.8451414704322815,9.909671783447266,0.027304748073220253,0.08147937059402466,-0.2431347668170929,885
-0.2300116866827011,-0.933726966381073,9.39731216430664,0.09272128343582153,0.06429249048233032,-0.08605512976646423,897
-0.6585737466812134,-0.9480921626091003,9.648702621459961,0.187049001455307,0.030718207359313965,0.02692495286464691,909
-1.0727707147598267,-0.8642950654029846,9.904882431030273,0.16320060193538666,0.018594205379486084,-0.012111783027648926,921
-0.7184288501739502,-0.7757096290588379,10.043746948242188,0.10271363705396652,-0.008052051067352295,-0.003052070736885071,933
-0.9602432250976562,-0.890631377696991,10.046140670776367,0.037963248789310455,-0.015113294124603271,0.02519296109676361,945
-0.9841852188110352,-0.9863993525505066,9.754047393798828,0.03183460980653763,-0.04309189319610596,0.004275649785995483,957
-0.9195417165756226,-0.9816109538078308,9.799537658691406,0.0158468596637249,-0.05881321430206299,-0.003984689712524414,969
-0.9171475172042847,-1.0606197118759155,9.866575241088867,0.020643183961510658,-0.06507503986358643,0.01107044517993927,981
-0.6489969491958618,-0.9433037638664246,9.794748306274414,0.004788667894899845,-0.022307753562927246,0.01533384621143341,993
-0.7854664921760559,-1.0007647275924683,9.842632293701172,0.0017243493348360062,0.0032725930213928223,0.044111788272857666,1005
-0.7902548909187317,-0.9480921626091003,9.821084976196289,0.011849923059344292,0.014730453491210938,0.04597702622413635,1017
-1.1805098056793213,-1.1563878059387207,9.734893798828125,0.08805818855762482,-0.04908722639083862,0.04078100621700287,1029
-0.5532289147377014,-1.0007647275924683,9.70855712890625,0.1047121062874794,0.04310870170593262,0.0018775016069412231,1041
-0.6250549554824829,-1.0989269018173218,9.588848114013672,0.18171975016593933,0.022457897663116455,0.022794798016548157,1053
-1.1206547021865845,-1.0390719175338745,9.732500076293945,0.27551454305648804,-0.00698620080947876,-0.01704135537147522,1065
-0.92193603515625,-0.9073907732963562,9.627155303955078,0.38902756571769714,-0.023773372173309326,-0.017840728163719177,1077
-0.8309563398361206,-0.8451414704322815,9.955160140991211,0.35905054211616516,0.01246553659439087,-0.06713628768920898,1089
-0.943483829498291,-0.6727589964866638,10.06768798828125,0.2775130271911621,0.016062796115875244,-0.10657274723052979,1101
-0.7567360401153564,-0.6775473952293396,9.93840217590332,0.26219144463539124,0.04310870170593262,-0.1409463882446289,1113
-0.6322375535964966,-0.529106855392456,9.88333511352539,0.2807105779647827,0.017261862754821777,-0.0980459451675415,1125
-0.3712695837020874,-0.7445850372314453,9.99825668334961,0.2547304928302765,0.01926034688949585,-0.055012255907058716,1137
-0.7854664921760559,-0.9217559695243835,9.433225631713867,0.34266307950019836,-0.015513002872467041,-0.003052070736885071,1149
-1.0033388137817383,-0.6536053419113159,9.440406799316406,0.3924916088581085,-0.0021898746490478516,-0.049949467182159424,1161
-0.10072478652000427,-1.249761700630188,9.76123046875,0.5547672510147095,0.04484075307846069,0.020396634936332703,1173
-0.9075707197189331,-0.2561678886413574,9.608001708984375,0.5823460817337036,-0.03962785005569458,0.08554670959711075,1185
-0.8525041341781616,-0.25377368927001953,10.13711929321289,0.5510367751121521,-0.05601531267166138,0.020663082599639893,1197
-0.7280056476593018,-0.25377368927001953,10.072477340698242,0.3797014057636261,-0.07293564081192017,0.049574270844459534,1209
-1.230787992477417,-0.34714752435684204,8.415689468383789,0.4095451831817627,-0.19524192810058594,0.042646244168281555,1221
-1.6569558382034302,-0.529106855392456,8.571311950683594,0.6076600551605225,-0.1479448676109314,-0.14667534828186035,1233
-1.1445966958999634,0.014376893639564514,10.48427963256836,0.255929559469223,0.21004748344421387,-0.3747672438621521,1245
-0.40957680344581604,0.34956514835357666,10.62314224243164,0.01038438081741333,-0.14581310749053955,-0.32600462436676025,1257
-0.524498462677002,-0.007170930504798889,10.639902114868164,-0.06728943437337875,-0.5896064043045044,0.012669220566749573,1269
-0.6178723573684692,0.10775075852870941,10.434001922607422,-0.07768146693706512,-0.7382924556732178,-0.00438438355922699,1281
-0.1845218539237976,0.2490086555480957,11.063676834106445,-0.05356661230325699,-0.6811363697052002,-0.005849927663803101,1293
0.21770402789115906,-0.06702595949172974,10.527374267578125,-0.017061255872249603,-0.4891500473022461,-0.007049009203910828,1305
-0.0719943642616272,-0.11490999162197113,10.536951065063477,-0.01053292490541935,-0.20017153024673462,0.013068914413452148,1317
-0.3305681645870209,-0.2801099419593811,9.727710723876953,0.009052067995071411,0.15449008345603943,0.029856055974960327,1329
-0.6274491548538208,-0.2777157425880432,9.964736938476562,0.03343338519334793,0.369525283575058,0.022128641605377197,1341
-0.7639186382293701,-0.05026654899120331,9.34463882446289,0.05421745777130127,0.3771194517612457,-0.04009036719799042,1353
-0.6992752552032471,0.24422025680541992,9.088459014892578,0.025306278839707375,0.07748240232467651,1.2248754501342773e-05,1365
-1.0224924087524414,0.20830723643302917,9.320697784423828,-0.013064318336546421,-0.3015604615211487,-0.0025191456079483032,1377
-1.2212111949920654,-0.24898530542850494,8.4300537109375,-0.07008729130029678,-0.6410336494445801,0.007073506712913513,1389
1.7164744138717651,1.300063133239746,11.372528076171875,0.026238897815346718,-0.13915157318115234,0.21504747867584229,1401
3.514519691467285,1.2402081489562988,11.671802520751953,-0.13776876032352448,-0.758010745048523,-0.8297519087791443,1413
-1.4103530645370483,-3.0118939876556396,11.10916519165039,-0.41169217228889465,-0.6710107326507568,-0.13974732160568237,1425
-3.732728958129883,-0.7206430435180664,14.298242568969727,-0.83749920129776,0.16608119010925293,-0.27391117811203003,1437
1.718868613243103,-1.2832804918289185,11.334220886230469,-1.1648483276367188,-0.1447473168373108,-0.2731117904186249,1449
-1.1278373003005981,-1.2689152956008911,9.773200988769531,-0.7894027829170227,-0.3389984369277954,0.0018775016069412231,1461
-0.7687070369720459,0.1340869814157486,9.380552291870117,0.11590351909399033,-0.40907812118530273,0.15322817862033844,1473
-0.41915363073349,0.5315244793891907,10.692575454711914,0.38436445593833923,-0.7456202507019043,0.6521791815757751,1485
0.6821792125701904,0.35195934772491455,10.37175178527832,0.4659020006656647,-0.6822021007537842,0.9018545150756836,1497
-0.35690438747406006,1.3958312273025513,10.963119506835938,0.44005513191223145,-0.15180855989456177,0.7674241662025452,1509
-0.026504546403884888,-1.2521559000015259,12.215286254882812,0.46283766627311707,-0.20510107278823853,0.5546538829803467,1521
-1.4654197692871094,-1.8195816278457642,12.92636489868164,0.23314699530601501,-0.5654916763305664,0.4292833209037781,1533
-0.9937620162963867,-1.7405730485916138,13.062833786010742,-0.17267535626888275,-0.6415665149688721,0.18267227709293365,1545
-1.5803414583206177,-0.7158545851707458,11.458719253540039,-0.561444103717804,-0.6952588558197021,0.17507809400558472,1558
-1.352892279624939,0.16521160304546356,10.101207733154297,-0.6473782658576965,-0.5515023469924927,-0.13681623339653015,1570
1.278335452079773,0.6703881621360779,8.875375747680664,-0.23502756655216217,-0.1447473168373108,-0.15853291749954224,1582
2.298265218734741,1.5706079006195068,6.957620143890381,-0.12804287672042847,0.1466294229030609,-0.5265176296234131,1594
3.5911340713500977,0.20830723643302917,5.607290267944336,0.173859104514122,-0.26092493534088135,-0.4320566654205322,1606
1.5033904314041138,-0.8451414704322815,9.047758102416992,0.3815666139125824,-0.40548086166381836,-0.23394182324409485,1618
0.4882487952709198,-2.1356160640716553,12.265565872192383,0.10897549986839294,-0.43332624435424805,-0.24393412470817566,1630
-0.5939303636550903,-3.0789315700531006,12.634271621704102,-0.22383613884449005,-0.5002082586288452,-0.16599386930465698,1642
-0.10551318526268005,-2.5498130321502686,12.49301528930664,-0.6457794904708862,-0.6578208208084106,-0.2756431996822357,1654
0.47388359904289246,-1.9943584203720093,11.34379768371582,-0.8343016505241394,-0.5650918483734131,-0.14574271440505981,1666
-0.4359130263328552,-0.7350082397460938,10.438789367675781,-0.8802664279937744,-0.39708733558654785,0.03398621082305908,1678
-0.07678276300430298,0.5746200680732727,9.897699356079102,-0.7034686207771301,-0.2369433045387268,-0.1261577308177948,1690
0.636689305305481,1.0558545589447021,8.525821685791016,-0.37412095069885254,0.12477949261665344,-0.009447157382965088,1702
0.9551181793212891,1.503570318222046,6.497933387756348,0.03956202417612076,0.4024333953857422,0.06422971189022064,1714
1.2304513454437256,-0.148428812623024,7.620813846588135,0.34612712264060974,0.4877013862133026,0.1077963188290596,1726
0.9527239799499512,-1.0175241231918335,10.230493545532227,0.3554532825946808,0.5604456663131714,0.19586217403411865,1738
0.7755531072616577,-2.1763176918029785,11.279153823852539,0.1345558911561966,0.6732925176620483,0.21611331403255463,1750
0.3709329664707184,-2.3678536415100098,11.178598403930664,-0.15628790855407715,0.6567718386650085,0.05330474674701691,1762
-0.3449333608150482,-1.7860628366470337,10.797920227050781,-0.15921899676322937,0.4364073574542999,-0.20489737391471863,1774
0.5648633241653442,-1.070196509361267,10.73088264465332,-0.38184839487075806,0.21857428550720215,-0.14347779750823975,1786
0.49303725361824036,-0.2609562873840332,9.718133926391602,-0.4076952338218689,0.10066461563110352,0.04317918419837952,1798
-0.11987841129302979,-0.19631285965442657,9.809114456176758,-0.4058300256729126,0.15915313363075256,-0.04142265021800995,1810
0.30868372321128845,-0.531501054763794,9.126766204833984,-0.36892494559288025,0.13610413670539856,-0.10124349594116211,1822
1.1634137630462646,-0.7852864861488342,8.05416488647461,-0.3019096553325653,0.048970937728881836,0.08741194754838943,1834
0.7611877918243408,-1.0773791074752808,8.293584823608398,-0.08727411180734634,-0.08239507675170898,0.26381009817123413,1846
0.15784898400306702,-1.1635704040527344,9.370975494384766,-0.1554885059595108,-0.15487289428710938,0.28446096181869507,1858
-0.3760579824447632,-1.1396284103393555,9.521810531616211,-0.12337978929281235,-0.2185574173927307,0.07768606394529343,1870
-0.6322375535964966,-1.1108978986740112,9.722923278808594,-0.20838132500648499,-0.1905788779258728,-0.08858650922775269,1882
-0.7950432896614075,-1.0606197118759155,9.2225341796875,-0.17707198858261108,-0.2418729066848755,-0.21222510933876038,1894
-0.35451018810272217,-1.091744303703308,9.375764846801758,-0.24248851835727692,-0.2366768717765808,-0.2364732027053833,1906
0.23685762286186218,-0.811622679233551,9.069305419921875,-0.2295650839805603,0.04017764329910278,-0.0438208281993866,1918
-0.3425391614437103,-0.6440285444259644,9.667856216430664,-0.18799693882465363,0.2195068895816803,-0.06087443232536316,1930
0.7516109943389893,-1.173147201538086,9.646308898925781,-0.1043277159333229,0.2885206639766693,-0.2099601924419403,1942
1.0844050645828247,-1.604103446006775,9.27999496459961,-0.10566002875566483,0.31423431634902954,-0.14294487237930298,1954
0.14827218651771545,-1.5945266485214233,9.629549026489258,-0.06862174719572067,0.22390353679656982,-0.15826645493507385,1966
0.5121908187866211,-1.577767252922058,9.586454391479492,-0.08820673823356628,0.10466158390045166,-0.22608116269111633,1978
0.7204864025115967,-1.2401849031448364,9.00466251373291,-0.16401532292366028,0.12930935621261597,-0.1410796344280243,1990
0.7851299047470093,-1.0893501043319702,8.396535873413086,-0.214776411652565,0.12091580033302307,-0.12908881902694702,2002
1.079616665840149,-0.8451414704322815,7.881782054901123,-0.1275099515914917,-0.05388361215591431,-0.05874273180961609,2014
1.1634137630462646,-0.7541618347167969,8.09007740020752,-0.08354364335536957,-0.2152266502380371,0.0030765682458877563,2026
0.7396399974822998,-0.7326140403747559,9.126766204833984,0.046889737248420715,-0.3581838011741638,-0.05887594819068909,2038
0.7540051937103271,-0.955274760723114,10.326261520385742,0.11523736268281937,-0.16566461324691772,0.06889279931783676,2050
0.29431846737861633,-1.6088919639587402,11.09480094909668,0.11563707143068314,0.0352480411529541,0.20958499610424042,2062
0.12193599343299866,-1.7190251350402832,11.544910430908203,0.041960179805755615,0.16714701056480408,0.2853935658931732,2074
-0.22043487429618835,-1.735784649848938,11.645467758178711,-0.13457120954990387,0.06269371509552002,0.1620214432477951,2086
0.0692635178565979,-1.3407412767410278,11.011003494262695,-0.2721990644931793,-0.11383771896362305,-0.0684686005115509,2098
0.6941502094268799,-0.6799415946006775,10.046140670776367,-0.14363093674182892,-0.32021284103393555,-0.010379791259765625,2110
1.4100165367126465,-0.569808304309845,9.75883674621582,-0.0895390510559082,-0.33340275287628174,0.13337671756744385,2122
1.3812861442565918,-0.713460385799408,9.136343002319336,-0.12391270697116852,-0.2266845703125,0.37399232387542725,2134
0.7587935924530029,-1.127657413482666,8.923259735107422,-0.11818376928567886,-0.19923889636993408,0.43154823780059814,2146
1.2807296514511108,-1.2593384981155396,9.69179916381836,-0.15242420136928558,-0.025638580322265625,0.46299079060554504,2158
0.6893618106842041,-0.8403530716896057,9.933612823486328,-0.13283920288085938,0.03458195924758911,0.2787320017814636,2170
-0.5460463166236877,-1.4460861682891846,9.074094772338867,-0.20758193731307983,0.30757275223731995,0.4022373557090759,2182
0.07165771722793579,-1.0414661169052124,10.706939697265625,-0.4516615569591522,0.38831087946891785,0.42994946241378784,2194
-0.2300116866827011,-0.9959762692451477,10.493856430053711,-0.4210183620452881,0.45719143748283386,0.40716689825057983,2206
0.14348378777503967,-1.3455296754837036,10.86016845703125,-0.511082649230957,0.34194642305374146,0.30604439973831177,2218
-0.1629740446805954,-1.7429672479629517,9.952766418457031,-0.3943721354007721,0.04297548532485962,0.08741194754838943,2230
0.8497732877731323,-1.7094483375549316,10.757217407226562,-0.2921837568283081,-0.31994640827178955,0.1602894365787506,2242
0.5504981279373169,-2.454045057296753,10.194580078125,-0.3481408953666687,-0.3673766851425171,0.24862174689769745,2254
0.2488286793231964,-2.3103928565979004,9.809114456176758,-0.4194195866584778,-0.36631089448928833,0.1985267996788025,2266
0.813860297203064,-1.9273208379745483,9.916852951049805,-0.4587228000164032,-0.4327932596206665,0.23716385662555695,2278
0.670208215713501,-2.27687406539917,9.502656936645508,-0.5197427272796631,-0.3636462688446045,0.3337565064430237,2290
0.5672575235366821,-2.5043232440948486,10.094024658203125,-0.6808193325996399,-0.19124501943588257,0.4061010777950287,2302
0.052504122257232666,-2.7341666221618652,9.533781051635742,-0.6480444073677063,-0.09784990549087524,0.3420168459415436,2314
-0.012139320373535156,-2.6862826347351074,8.71975326538086,-0.5148131847381592,0.03871208429336548,0.21011792123317719,2326
-0.016927748918533325,-2.0422422885894775,9.059728622436523,-0.455791711807251,0.07561713457107544,-0.08179172873497009,2338
-0.1845218539237976,-1.8123990297317505,7.989521026611328,-0.2081148475408554,0.04484075307846069,-0.1258912980556488,2350
0.5816227197647095,-1.29285728931427,8.403717994689941,0.013581929728388786,-0.062277138233184814,0.014401227235794067,2362
0.35656771063804626,-1.7621208429336548,8.741300582885742,-0.014796324074268341,0.022591114044189453,0.19266462326049805,2374
-0.328173965215683,-1.4772107601165771,9.15310287475586,-0.05583154410123825,-0.02670443058013916,0.17641040682792664,2386
-0.0935421884059906,-1.3814427852630615,8.892135620117188,0.056082695722579956,0.0003414750099182129,0.14989739656448364,2398
0.756399393081665,-1.7980338335037231,9.94558334350586,0.007719755172729492,0.04031085968017578,0.14523430168628693,2410
0.2991068661212921,-2.4899580478668213,9.852210998535156,-0.08447626233100891,0.10279637575149536,0.08621286600828171,2422
0.21291562914848328,-2.413343667984009,10.089235305786133,-0.13990046083927155,0.057231247425079346,0.042646244168281555,2434
0.2081272304058075,-2.190682888031006,10.196975708007812,-0.22809955477714539,0.05829709768295288,0.02958957850933075,2446
0.40445175766944885,-2.0661842823028564,9.801931381225586,-0.2893858850002289,0.058430373668670654,0.11166002601385117,2458
0.5409212112426758,-2.2672972679138184,9.528993606567383,-0.327090322971344,-0.031633973121643066,0.0386493057012558,2470
0.5552865266799927,-2.387007236480713,9.608001708984375,-0.30937057733535767,-0.14901071786880493,-0.0019862204790115356,2482
0.4427590072154999,-2.298421859741211,9.473926544189453,-0.28299078345298767,-0.2827748656272888,-0.033828482031822205,2494
0.7324573993682861,-2.3678536415100098,9.720529556274414,-0.2394242137670517,-0.256928026676178,0.021062791347503662,2506
0.3278373181819916,-2.5091116428375244,9.58405876159668,-0.2129111886024475,-0.15953600406646729,0.08714547753334045,2518
0.09559974074363708,-2.6120622158050537,9.974313735961914,-0.24302144348621368,-0.08279472589492798,0.07728636264801025,2530
-0.05044656991958618,-2.5569956302642822,9.689403533935547,-0.2611408829689026,0.027653932571411133,0.028790205717086792,2542
0.18179097771644592,-2.319969654083252,9.287178039550781,-0.2610076367855072,0.08880704641342163,-0.04342111945152283,2554
0.7276690006256104,-2.0254828929901123,9.088459014892578,-0.18146860599517822,0.08201229572296143,-0.03849157691001892,2566
0.8689268827438354,-2.0446364879608154,8.820308685302734,-0.10246247798204422,0.12371364235877991,0.147366002202034,2578
0.44994160532951355,-2.274479866027832,9.059728622436523,-0.05436599999666214,0.07548391819000244,0.06129862368106842,2590
0.38290396332740784,-2.3702478408813477,9.34463882446289,-0.006802449934184551,-0.027637004852294922,-0.13361868262290955,2602
0.8832920789718628,-2.5474188327789307,9.58405876159668,0.004788667894899845,-0.030434846878051758,-0.13894793391227722,2614
1.034126877784729,-2.676705837249756,9.698980331420898,-0.011732006445527077,0.07228636741638184,-0.013444095849990845,2626
0.7252748012542725,-2.7509260177612305,9.979103088378906,-0.05783001333475113,0.11718529462814331,0.02785758674144745,2638
0.5409212112426758,-2.9496448040008545,10.096418380737305,-0.07754823565483093,0.05523276329040527,0.0041424185037612915,2650
0.7324573993682861,-2.9496448040008545,9.859392166137695,-0.152024507522583,0.06002908945083618,0.022261857986450195,2662
