accel_x,accel_y,accel_z,gyro_x,gyro_y,gyro_z,time
8.324471473693848,-1.6495933532714844,6.18908166885376,0.40514853596687317,0.8755375146865845,-1.5979633331298828,16
8.085051536560059,0.749396800994873,6.308791637420654,0.6076600551605225,0.4003016948699951,-1.1132678985595703,28
7.668459415435791,-1.8195816278457642,7.2760491371154785,0.6506937146186829,0.6546401381492615,-0.8380122780799866,40
9.107375144958496,-1.0582255125045776,6.830727577209473,0.5983338356018066,0.6863491535186768,-0.5498330593109131,52
9.200749397277832,-1.0175241231918335,5.755731105804443,0.8244273066520691,0.0893399715423584,-0.24380090832710266,64
9.040337562561035,-1.956051230430603,7.175492763519287,1.0571821928024292,0.1897963285446167,0.048908114433288574,77
8.45615291595459,-2.102097272872925,7.177886962890625,1.0685068368911743,0.5377963185310364,0.20225727558135986,89
7.7283148765563965,-2.408555269241333,6.835515975952148,0.9615222215652466,0.800794780254364,0.16668453812599182,101
7.462558269500732,-2.7988100051879883,6.785237789154053,0.7941837906837463,0.9028499126434326,0.060232773423194885,113
6.720355987548828,-3.1244213581085205,6.979167938232422,0.5619617104530334,0.6692955493927002,-0.05461256206035614,125
5.987730026245117,-3.095690965652466,6.792420387268066,0.3221454918384552,0.14090046286582947,-0.19943490624427795,137
6.2486982345581055,-2.6623406410217285,6.375829219818115,0.10218070447444916,-0.5574977397918701,-0.24886372685432434,149
5.798588275909424,-2.451650857925415,6.112466812133789,-0.07128636538982391,-1.1169356107711792,-0.18517917394638062,161
5.777040481567383,-2.537842035293579,5.609684467315674,-0.14256508648395538,-1.334902048110962,-0.1412128508090973,173
5.765069484710693,-2.825146198272705,4.826780796051025,-0.08754058182239532,-1.1751577854156494,-0.1144334077835083,185
6.0691328048706055,-2.8179636001586914,4.333575248718262,0.020643183961510658,-1.0056874752044678,-0.1477411985397339,197
6.49290657043457,-3.007105588912964,4.4030070304870605,0.1725267916917801,-0.8645956516265869,-0.21115928888320923,209
7.160888671875,-3.335111141204834,4.953673362731934,0.3058913052082062,-0.835817813873291,-0.2563246488571167,221
7.646912097930908,-3.380600929260254,5.300832748413086,0.3835650682449341,-1.1138713359832764,-0.24673202633857727,233
7.5918450355529785,-3.399754762649536,5.1739397048950195,0.3963552713394165,-1.7752312421798706,-0.18677794933319092,245
6.959775924682617,-3.9360556602478027,5.286467552185059,0.3502572774887085,-2.6845345497131348,-0.17505359649658203,257
6.940622329711914,-3.869018077850342,4.206682205200195,0.3506569564342499,-3.6012988090515137,-0.19570446014404297,269
7.256657123565674,-3.62241530418396,3.328010320663452,0.4128759801387787,-3.7457213401794434,-0.258056640625,281
7.357213497161865,-3.4572155475616455,3.3375871181488037,0.45431089401245117,-3.7457213401794434,-0.4131377935409546,293
7.362001895904541,-3.0645663738250732,2.779738187789917,0.5020076632499695,-3.7457213401794434,-0.5997947454452515,305
7.673247814178467,-2.542630434036255,1.6089736223220825,0.6233813166618347,-3.7457213401794434,-0.7643353939056396,317
7.977311611175537,-2.5115058422088623,1.2259013652801514,0.866661548614502,-3.7457213401794434,-0.8923705220222473,329
8.561497688293457,-2.3056044578552246,1.2833621501922607,1.1762909889221191,-3.7457213401794434,-0.9511255621910095,341
8.647688865661621,-1.9871758222579956,1.3336403369903564,1.448615550994873,-3.7457213401794434,-0.9946921467781067,353
9.277363777160645,-1.7645150423049927,1.678405523300171,1.5874426364898682,-3.7457213401794434,-1.0756967067718506,365
10.122516632080078,-1.6064976453781128,0.14132797718048096,1.704153060913086,-3.7457213401794434,-1.1532373428344727,377
10.847959518432617,-1.4891818761825562,-1.197030782699585,1.9138590097427368,-3.7457213401794434,-1.164961814880371,389
10.292505264282227,-0.7493734359741211,-1.110839605331421,2.257329225540161,-3.371607780456543,-1.1213951110839844,401
11.185542106628418,-0.13166941702365875,-1.570526361465454,2.6135897636413574,-2.1589369773864746,-1.0804929733276367,413
10.83120059967041,0.2705564796924591,-1.019859790802002,2.817300319671631,-1.4835880994796753,-1.0611743927001953,425
9.91422176361084,0.2992869019508362,-1.2904045581817627,2.8935084342956543,-1.4514793157577515,-1.018540620803833,437
9.559879302978516,0.2681622803211212,-1.6471407413482666,2.894707441329956,-1.7247365713119507,-1.0896861553192139,449
10.07223892211914,0.0071942806243896484,-2.0254244804382324,2.8937747478485107,-2.0868592262268066,-1.0822250843048096,461
10.16321849822998,-0.06942017376422882,-1.8745899200439453,2.920687675476074,-2.380101203918457,-0.9889633059501648,473
10.31405258178711,-0.12448681890964508,-1.9392333030700684,2.923485517501831,-2.5247902870178223,-0.8775818943977356,485
10.270956993103027,-0.05026654899120331,-2.2504794597625732,2.9141592979431152,-2.4455175399780273,-0.7438178062438965,497
10.024354934692383,-0.08378536999225616,-2.633551836013794,2.9025683403015137,-2.3234777450561523,-0.6590826511383057,509
9.794510841369629,0.07183773070573807,-3.3949079513549805,2.9225528240203857,-2.0803308486938477,-0.6171148419380188,521
9.344401359558105,0.0407131165266037,-2.6910126209259033,2.9096293449401855,-1.9412373304367065,-0.6458927989006042,533
9.294122695922852,-0.282504141330719,-2.607215642929077,2.791186809539795,-1.9569586515426636,-0.7145069241523743,545
9.452140808105469,-0.4931938648223877,-2.9783167839050293,2.59213924407959,-2.087258815765381,-0.7414196133613586,557
9.162442207336426,-0.5530489087104797,-3.074084758758545,2.3444623947143555,-2.2707180976867676,-0.7721960544586182,569
8.76261043548584,-0.7230372428894043,-3.581655502319336,2.139153242111206,-2.2871055603027344,-0.7761929631233215,581
9.449746131896973,-0.5003764629364014,-3.909661293029785,1.9033337831497192,-2.3336033821105957,-0.8029724359512329,593
9.509601593017578,-0.5674141049385071,-4.19696569442749,1.7252036333084106,-2.280843734741211,-0.814430296421051,605
9.404255867004395,-0.45967501401901245,-4.659046649932861,1.581047534942627,-2.1686630249023438,-0.8298851847648621,617
9.195960998535156,-0.5410779118537903,-4.599191188812256,1.4471501111984253,-2.0694055557250977,-0.8867748379707336,629
8.958934783935547,-0.6943067908287048,-4.46990442276001,1.2956660985946655,-1.9541608095169067,-0.9399340748786926,641
8.83204174041748,-0.8547182679176331,-4.824246406555176,1.1701624393463135,-1.871024489402771,-0.9844333529472351,653
8.719514846801758,-0.7804980874061584,-5.195347785949707,1.0980842113494873,-1.8301225900650024,-1.0128116607666016,665
8.669236183166504,-0.7421908378601074,-5.413219928741455,1.0786324739456177,-1.9524286985397339,-1.0442543029785156,677
8.43460464477539,-0.7206430435180664,-5.561660289764404,1.0920888185501099,-2.1486783027648926,-1.0870213508605957,689
8.34601879119873,-0.6344517469406128,-5.896848678588867,1.1168699264526367,-2.3261423110961914,-1.1224608421325684,701
8.618958473205566,-0.5961444973945618,-6.220066070556641,1.1304594278335571,-2.4724302291870117,-1.1477749347686768,713
8.954146385192871,-0.6631821990013123,-6.423573017120361,1.1473798751831055,-2.645763874053955,-1.1207289695739746,725
8.657265663146973,-0.667970597743988,-6.715665817260742,1.145114779472351,-2.931811809539795,-1.0739648342132568,737
7.405097484588623,-0.5123474597930908,-5.860935688018799,1.0649096965789795,-3.4428868293762207,-1.0831577777862549,749
6.306159019470215,-0.7996516823768616,-5.511382102966309,0.861598789691925,-3.7457213401794434,-1.169891357421875,761
6.8879499435424805,-0.9887935519218445,-8.384424209594727,0.7883216142654419,-3.7457213401794434,-1.2009341716766357,773
7.170465469360352,-1.4101731777191162,-11.08268928527832,1.2234548330307007,-2.951663017272949,-1.09061861038208,785
5.856049060821533,-0.8858429789543152,-10.464984893798828,1.7254700660705566,-1.240174651145935,-0.9342052340507507,797
4.0795512199401855,0.18915361166000366,-7.647010326385498,1.8067412376403809,-0.9405375719070435,-0.9533905386924744,809
4.242356777191162,1.1109212636947632,-7.553636074066162,1.6948269605636597,-1.1667641401290894,-1.1092710494995117,821
5.214402675628662,1.0103647708892822,-8.326963424682617,1.651260256767273,-0.9667841196060181,-1.2402372360229492,833
5.633388042449951,-0.20110125839710236,-8.235982894897461,1.641001582145691,-0.6756738424301147,-1.3245728015899658,845
5.633388042449951,-0.6583938002586365,-7.812210559844971,1.549338459968567,-0.8139679431915283,-1.3753337860107422,857
5.3412957191467285,-0.5434721112251282,-7.778690814971924,1.4264992475509644,-1.1543736457824707,-1.431823968887329,869
4.771475791931152,-0.9026023745536804,-8.063600540161133,1.3265758752822876,-1.4838544130325317,-1.5112297534942627,881
4.723591327667236,-1.3191934823989868,-7.797844409942627,1.2514333724975586,-1.6097580194473267,-1.5793108940124512,893
4.924704551696777,-1.5322774648666382,-7.958256244659424,1.227052092552185,-1.5571316480636597,-1.598895788192749,905
5.082721710205078,-1.4484803676605225,-7.87206506729126,1.2122633457183838,-1.5223582983016968,-1.6170151233673096,917
5.779434680938721,-1.0606197118759155,-8.27907943725586,1.195343017578125,-1.6018973588943481,-1.634202003479004,929
4.778658390045166,-1.3742601871490479,-8.65018081665039,1.1964088678359985,-1.8285235166549683,-1.7033491134643555,941
3.8616790771484375,-1.4867876768112183,-7.606308460235596,1.1152710914611816,-1.9913321733474731,-1.8324501514434814,953
3.1338415145874023,-1.6950831413269043,-7.247178554534912,0.9989602565765381,-1.9694823026657104,-1.958486795425415,965
2.4658594131469727,-1.0845617055892944,-6.957479953765869,0.937274158000946,-1.5464731454849243,-2.105441093444824,977
3.5312790870666504,-0.8762661814689636,-7.378859996795654,0.889044463634491,-1.1291929483413696,-2.20869517326355,989
3.2870705127716064,-0.5674141049385071,-7.608703136444092,0.9459341764450073,-0.5026063919067383,-2.350586414337158,1001
3.5240964889526367,-0.45967501401901245,-7.72601842880249,0.9928315877914429,0.04017764329910278,-2.484750270843506,1013
4.5009307861328125,-0.5099532604217529,-8.880023956298828,1.1112741231918335,0.34021440148353577,-2.505934238433838,1025
5.130605697631836,-0.45967501401901245,-9.847282409667969,1.3029937744140625,0.3811163902282715,-2.400681495666504,1037
5.425092697143555,-0.6009329557418823,-9.8592529296875,1.4827228784561157,0.2767963409423828,-2.1963045597076416,1049
5.037231922149658,-0.7326140403747559,-9.921501159667969,1.5849111080169678,-0.012848377227783203,-1.9993889331817627,1061
4.414739608764648,-0.7038835883140564,-9.921501159667969,1.6519265174865723,-0.23627716302871704,-1.9165191650390625,1073
3.964629650115967,-0.7924690842628479,-9.26548957824707,1.671644687652588,-0.3126186728477478,-1.920516014099121,1085
3.9047746658325195,-1.235396385192871,-8.180917739868164,1.634206771850586,-0.27717912197113037,-1.973142385482788,1097
4.488959789276123,-1.335952877998352,-7.632645130157471,1.5284210443496704,-0.1246294379234314,-2.0049846172332764,1109
5.164124488830566,-1.3024340867996216,-7.9702277183532715,1.4010521173477173,0.02312403917312622,-1.9961915016174316,1121
5.580715656280518,-1.1085036993026733,-8.65018081665039,1.3457610607147217,0.069355309009552,-1.947695255279541,1133
5.463399887084961,-0.8858429789543152,-8.894390106201172,1.3115206956863403,-0.04988664388656616,-1.9022634029388428,1145
5.247921943664551,-1.0390719175338745,-8.796226501464844,1.2580949068069458,-0.22441959381103516,-1.8857426643371582,1157
5.13778829574585,-1.4772107601165771,-8.504135131835938,1.1845513582229614,-0.3593828082084656,-1.896134614944458,1169
5.144970893859863,-1.6471991539001465,-8.365270614624023,1.0983507633209229,-0.4646354913711548,-1.920516014099121,1181
4.9654059410095215,-1.7525440454483032,-7.9438910484313965,0.960456371307373,-0.49487900733947754,-1.9500935077667236,1193
4.86484956741333,-2.035059690475464,-7.512935161590576,0.7398254871368408,-0.4996753931045532,-2.0151102542877197,1205
4.824148178100586,-2.161952495574951,-7.431532382965088,0.5319846868515015,-0.4904823303222656,-2.1037089824676514,1217
5.185672283172607,-2.2649030685424805,-7.4578680992126465,0.39382392168045044,-0.48928332328796387,-2.1496737003326416,1229
5.970970630645752,-2.339123249053955,-7.591943264007568,0.32321131229400635,-0.4810229539871216,-2.1172986030578613,1241
6.543184757232666,-1.5657962560653687,-7.338158130645752,0.2334134727716446,-0.5389785766601562,-2.019773244857788,1253
6.99090051651001,-1.29285728931427,-7.5680012702941895,0.09045635908842087,-0.7020535469055176,-1.8774824142456055,1265
7.472135066986084,-1.6280455589294434,-8.22161865234375,0.036497704684734344,-0.8482083082199097,-1.6400644779205322,1277
6.71796178817749,-2.1930770874023438,-8.03726577758789,0.0030566612258553505,-0.9273475408554077,-1.4651317596435547,1289
5.975759029388428,-1.7309962511062622,-7.771508693695068,-0.10392802208662033,-1.1802204847335815,-1.3303017616271973,1301
5.5831098556518555,-1.070196509361267,-7.740383625030518,-0.18320061266422272,-1.3162496089935303,-1.1553690433502197,1313
5.053991317749023,-0.9145733714103699,-8.013322830200195,-0.2278330773115158,-1.194875955581665,-1.0112128257751465,1325
4.845695972442627,-0.7038835883140564,-8.008535385131836,-0.2540796399116516,-1.0150138139724731,-0.8567978739738464,1337
1.8122423887252808,3.4093549251556396,-2.255267858505249,-0.19305972754955292,0.031784117221832275,0.8645497560501099,13
7.225532531738281,0.9576923847198486,20.632701873779297,-0.524672269821167,0.32196173071861267,0.9622082710266113,25
3.75872802734375,0.12690436840057373,3.5003929138183594,-0.44619908928871155,1.273632526397705,1.3088760375976562,37
19.21270179748535,1.7166543006896973,7.4963154792785645,-0.34241193532943726,1.4383063316345215,2.1919326782226562,49
2.901603937149048,-0.07899697124958038,5.006345748901367,0.08725880831480026,1.6201668977737427,2.333024501800537,61
2.4682536125183105,1.4389268159866333,3.287308931350708,0.4305956959724426,0.6365206837654114,2.1667518615722656,73
-3.8668041229248047,2.2864744663238525,7.309567928314209,0.6072603464126587,-2.042759418487549,1.8863000869750977,85
-12.13637638092041,6.069313049316406,0.5004582405090332,-0.24688515067100525,-2.0743350982666016,1.5284409523010254,97
17.41046714782715,-0.29208093881607056,14.85848617553711,-0.8171148300170898,-1.7946830987930298,1.9638407230377197,109
-0.7998316884040833,-0.629663348197937,7.534622669219971,-0.31816384196281433,-0.7822588682174683,1.319267988204956,121
-2.0591819286346436,3.730178117752075,5.899383068084717,-0.5362634062767029,-3.0887579917907715,0.967670738697052,133
-4.5108442306518555,-3.131603956222534,8.37259292602539,0.16493260860443115,-2.565558910369873,0.9363614320755005,145
-19.366865158081055,7.072483539581299,-3.7109427452087402,0.3365344703197479,-3.7457213401794434,0.36906278133392334,157
-3.4047231674194336,-0.24898530542850494,7.2114057540893555,0.03196784108877182,-3.7457213401794434,0.9384931325912476,169
1.1035586595535278,-0.12927521765232086,1.3049099445343018,0.19850687682628632,-3.7457213401794434,0.6448514461517334,181
12.533477783203125,0.12929856777191162,8.260066032409668,0.39688819646835327,-3.7457213401794434,0.7583644390106201,193
5.681272029876709,1.0271241664886475,6.818756580352783,0.5792818069458008,-3.7457213401794434,0.8620184063911438,205
2.0037784576416016,-2.5569956302642822,1.960921287536621,1.2830091714859009,-0.767736554145813,1.5365681648254395,217
2.6909143924713135,1.0965560674667358,6.885794162750244,1.6500612497329712,-0.896038293838501,1.2706387042999268,229
-15.888090133666992,1.8148164749145508,7.635179042816162,1.0113507509231567,-2.1754579544067383,0.809258759021759,241
3.610287666320801,-0.8379588723182678,4.496380805969238,0.9647197723388672,0.38351455330848694,1.4872727394104004,253
5.987730026245117,1.9967758655548096,19.634918212890625,0.7706018090248108,-0.038162291049957275,0.9127794504165649,265
-1.8939818143844604,0.6560229659080505,7.90811824798584,0.6990566849708557,1.6486784219741821,1.2866263389587402,277
6.552761554718018,-2.822751998901367,7.050993919372559,0.9278147220611572,3.229733467102051,0.9387595653533936,289
-1.7646949291229248,2.7533438205718994,-4.376530647277832,1.2150613069534302,2.1329739093780518,0.9031867980957031,301
3.5288848876953125,-1.027100920677185,0.6967827081680298,1.5474731922149658,0.7023369073867798,0.9069172739982605,313
3.1482067108154297,-1.3982021808624268,10.30232048034668,1.9674179553985596,0.9476156234741211,1.2924885749816895,325
-3.4550013542175293,0.2274608463048935,6.7684783935546875,2.171128749847412,1.4705482721328735,1.416393518447876,337
2.894421339035034,0.9074141383171082,9.050151824951172,2.4731638431549072,2.763823986053467,1.5309724807739258,349
-0.6154781579971313,1.3144283294677734,6.0597944259643555,2.3993537425994873,1.1193506717681885,1.5152511596679688,361
18.7081241607666,-2.4396798610687256,10.508220672607422,2.697924852371216,3.3894777297973633,1.4562296867370605,373
2.985401153564453,0.3615361452102661,6.390194416046143,2.5240581035614014,1.7238208055496216,1.8010320663452148,385
-2.9905264377593994,2.585749626159668,12.74679946899414,2.226019859313965,1.8438621759414673,1.0208300352096558,397
5.135394096374512,-0.48122286796569824,5.456455707550049,2.460373878479004,1.299745798110962,1.4032037258148193,409
13.44327449798584,-0.3734837770462036,10.659055709838867,2.233081340789795,0.837833046913147,1.98649001121521,421
0.5983821153640747,2.8419291973114014,8.942413330078125,1.9117274284362793,0.3725895881652832,0.4639234244823456,433
7.759438991546631,-1.0965327024459839,9.433225631713867,1.3486921787261963,-0.8302221298217773,1.0250933170318604,445
4.431499004364014,2.1093034744262695,12.157825469970703,1.1066110134124756,-1.5170291662216187,1.3682971000671387,457
5.477765083312988,-0.07181437313556671,9.619972229003906,1.1849510669708252,-0.4293292760848999,1.749471664428711,469
1.563245415687561,-0.5362895131111145,2.650451183319092,1.4737963676452637,-0.23920828104019165,1.6586079597473145,481
-0.08157119154930115,1.3766776323318481,8.980720520019531,1.1380535364151,-1.9532283544540405,1.5123200416564941,493
5.877596855163574,2.5091352462768555,13.72123908996582,0.3451944887638092,-1.1888805627822876,1.115290880203247,505
4.884003162384033,0.05507832020521164,8.312738418579102,0.44804900884628296,-0.5209923982620239,1.0826492309570312,517
-6.823643207550049,3.5841317176818848,14.13543701171875,0.6466968059539795,-0.7470858097076416,0.9801945090293884,529
12.310816764831543,-1.369471788406372,12.435554504394531,0.5037396550178528,0.14729556441307068,0.2905895709991455,541
2.3102362155914307,-1.616074562072754,9.852210998535156,0.10924196243286133,-0.08052986860275269,0.6441853046417236,553
0.7994951009750366,2.3032338619232178,6.17711067199707,0.17106124758720398,0.8030596971511841,0.6726967692375183,565
11.68114185333252,-0.1651882380247116,7.321538925170898,0.2875053584575653,0.7991960048675537,0.6223353743553162,577
7.843236446380615,-0.1915244609117508,9.725317001342773,0.14001837372779846,1.121748924255371,0.7571653723716736,589
15.985916137695312,5.152333736419678,2.0878138542175293,0.6461638808250427,2.039578914642334,0.7707549929618835,601
0.6175357103347778,6.320704460144043,14.705257415771484,0.2712511718273163,0.5832281708717346,0.5587840676307678,613
8.211943626403809,-0.5195300579071045,-1.3598365783691406,0.6393690705299377,1.0339494943618774,0.35533997416496277,625
13.953239440917969,0.0071942806243896484,2.2386486530303955,0.8414808511734009,1.4036662578582764,0.2414272576570511,637
-1.0607997179031372,-0.34714752435684204,6.150774002075195,0.34612712264060974,0.2787947952747345,-0.09924504160881042,649
-3.598653554916382,3.847493886947632,20.632701873779297,-0.017061255872249603,-0.16726338863372803,-0.37716537714004517,661
-1.151779294013977,0.5865911245346069,12.481042861938477,0.06980551779270172,0.8177151679992676,-0.34305816888809204,673
5.547196865081787,-1.2569442987442017,4.19950008392334,-0.01373047474771738,1.6934441328048706,-0.5309142470359802,685
1.1825673580169678,1.0510661602020264,2.7198832035064697,-0.3631960153579712,0.48397091031074524,-0.8726523518562317,697
-1.0248866081237793,-2.1475870609283447,3.842763900756836,0.2366110235452652,0.26267382502555847,-1.2111928462982178,709
3.600710868835449,2.71982479095459,12.830596923828125,0.1725267916917801,0.93602454662323,-1.1140673160552979,721
10.507983207702637,-2.2649030685424805,-7.120285511016846,0.09765084087848663,0.5352649688720703,-1.2038652896881104,733
8.949357986450195,0.3160462975502014,-0.46201086044311523,-0.21890658140182495,-0.9360076189041138,-1.3790643215179443,745
-1.0392518043518066,-1.9297150373458862,-0.6966426372528076,0.08912404626607895,-0.4117426872253418,-1.5726492404937744,757
6.581491947174072,-0.095756396651268,2.1500630378723145,0.4750949740409851,-1.5115665197372437,-1.7948789596557617,769
0.4188169538974762,0.8691068887710571,3.7134768962860107,1.0614455938339233,-1.631341576576233,-1.8632266521453857,781
-0.7902548909187317,-0.447704017162323,2.1237268447875977,1.2607595920562744,-1.477725863456726,-1.9648821353912354,793
0.2488286793231964,1.8219990730285645,6.596095561981201,1.409845232963562,-1.3154501914978027,-1.9071929454803467,805
-0.21325227618217468,1.9393149614334106,2.9209961891174316,1.533217430114746,-1.6907626390457153,-1.9528911113739014,817
-6.428599834442139,4.376612663269043,7.838686466217041,0.6681470274925232,-2.070338249206543,-0.30988362431526184,829
2.506560802459717,0.8667126893997192,3.0335235595703125,0.7073169946670532,-3.1583046913146973,-0.21435680985450745,841
-2.930671215057373,-0.3088403344154358,-0.33990657329559326,0.6820030212402344,-3.7457213401794434,0.3998391926288605,853
9.516783714294434,-1.781274437904358,9.744470596313477,0.33333688974380493,-3.7457213401794434,0.8874655961990356,865
13.038654327392578,-0.019141927361488342,10.359781265258789,0.9071638584136963,-3.7457213401794434,1.0815834999084473,877
3.4235401153564453,2.497164011001587,3.8978304862976074,1.2462372779846191,-2.933277130126953,1.2300031185150146,889
5.077933311462402,-0.8307762742042542,3.4357495307922363,1.6715115308761597,-1.0006248950958252,1.3858835697174072,901
6.911891937255859,-0.7565560340881348,3.3926539421081543,2.0661425590515137,0.03737980127334595,1.5474929809570312,913
11.125687599182129,3.624833106994629,4.673551559448242,2.354055166244507,1.7728499174118042,2.310908079147339,925
3.579163074493408,-1.3431354761123657,5.07098913192749,2.604130268096924,3.123814582824707,2.625333786010742,937
8.338836669921875,2.3942134380340576,3.308856725692749,2.627312421798706,4.985588073730469,3.1513307094573975,949
-0.9339070320129395,3.9025604724884033,1.9321908950805664,3.101482391357422,4.985588073730469,3.2170138359069824,961
10.49122428894043,0.5746200680732727,-2.944797992706299,3.0267398357391357,4.985588073730469,2.9414916038513184,973
0.7516109943389893,0.6871475577354431,0.13414537906646729,3.2741501331329346,4.985588073730469,3.01969838142395,985
0.8713210821151733,2.226619243621826,-1.8985319137573242,3.789088726043701,4.985588073730469,2.944955825805664,997
-1.2619125843048096,1.6520107984542847,-0.48834705352783203,4.355587959289551,4.985588073730469,2.9099156856536865,1009
-0.6513911485671997,1.2402081489562988,-0.9240918159484863,4.355587959289551,4.985588073730469,3.001445770263672,1021
-1.573158860206604,1.1683820486068726,-2.940009593963623,4.355587959289551,4.985588073730469,3.249255657196045,1033
-0.12945520877838135,1.8243932723999023,-0.11724579334259033,4.355587959289551,4.985588073730469,2.907517671585083,1045
0.7372457981109619,2.1978888511657715,-1.6231987476348877,4.355587959289551,4.985588073730469,2.7744197845458984,1057
1.520149827003479,3.864253282546997,-1.5298247337341309,4.355587959289551,4.985588073730469,3.270439624786377,1069
0.15784898400306702,2.5689902305603027,-0.7971991300582886,4.355587959289551,4.985588073730469,3.682523727416992,1081
-2.9378538131713867,7.357393741607666,15.167337417602539,4.355587959289551,4.985588073730469,3.719428777694702,1093
0.49782565236091614,6.361405849456787,16.718780517578125,3.0577826499938965,4.985588073730469,3.751537561416626,1105
3.234398126602173,7.771590709686279,16.417110443115234,1.2680872678756714,4.985588073730469,3.838271141052246,1117
4.587121963500977,12.38282299041748,20.632701873779297,-0.8129846453666687,4.985588073730469,3.786843776702881,1129
-20.0132999420166,2.365483045578003,20.632701873779297,-4.375721454620361,4.985588073730469,-4.175721168518066,1141
4.443470001220703,19.78270149230957,20.632701873779297,-4.375721454620361,4.985588073730469,-3.887808322906494,1153
-0.7734954357147217,14.23593521118164,12.60793685913086,-4.375721454620361,4.985588073730469,-4.175721168518066,1165
2.1163058280944824,5.365417957305908,4.015146255493164,-4.375721454620361,4.985588073730469,-4.175721168518066,1177
-5.430217742919922,9.1051607131958,12.706098556518555,-4.375721454620361,4.985588073730469,-4.175721168518066,1189
-11.760486602783203,12.80180835723877,15.03805160522461,-4.375721454620361,4.985588073730469,-4.175721168518066,1201
-6.5674638748168945,10.06523609161377,6.665527820587158,-4.375721454620361,4.7768144607543945,-4.175721168518066,1213
-8.631264686584473,8.870529174804688,13.307043075561523,-4.375721454620361,1.4714808464050293,-4.175721168518066,1225
-10.829142570495605,18.25101089477539,12.016569137573242,-4.375721454620361,-1.912192940711975,-4.175721168518066,1237
-4.46056604385376,6.907283782958984,5.274496555328369,-4.375721454620361,-3.6247472763061523,-4.175721168518066,1249
-5.063905239105225,3.421325922012329,4.182740211486816,-4.375721454620361,-3.7457213401794434,-4.175721168518066,1261
-5.365574359893799,2.3750598430633545,4.029511451721191,-4.375721454620361,-3.7457213401794434,-4.175721168518066,1273
-6.371139049530029,-1.4652397632598877,6.711017608642578,-2.199122428894043,-3.7457213401794434,-0.9808360934257507,1285
-6.780547618865967,-2.456439256668091,1.7957212924957275,-1.9339922666549683,-3.7457213401794434,-1.1024763584136963,1297
-5.207557201385498,-5.674246311187744,8.738906860351562,-1.2382588386535645,-3.7457213401794434,-0.988563597202301,1309
-4.108618259429932,-5.264837741851807,-0.13879358768463135,-1.1797703504562378,-3.7457213401794434,-1.0425221920013428,1321
-1.659350037574768,-4.132380485534668,6.026275634765625,-1.1064931154251099,-3.7457213401794434,-1.1925404071807861,1333
-1.0751649141311646,-4.158716678619385,10.752429962158203,-0.8629463911056519,-3.7457213401794434,-1.4200994968414307,1345
0.6342951059341431,-3.794797897338867,7.247318744659424,-0.8096539378166199,-3.7457213401794434,-1.7469158172607422,1357
4.280664443969727,12.342121124267578,20.183191299438477,-0.9955114722251892,-3.7457213401794434,-2.0341622829437256,1369
6.315735816955566,3.802004098892212,17.518444061279297,-1.7563949823379517,-3.7457213401794434,-2.2495970726013184,1381
4.776264190673828,-4.4699625968933105,4.364699840545654,-1.9807565212249756,-3.7457213401794434,-2.3373966217041016,1393
5.844078063964844,-4.450809001922607,4.225835800170898,-1.7377426624298096,-3.7457213401794434,-2.5902695655822754,1405
5.417910099029541,-5.511440753936768,3.265761137008667,-1.5660076141357422,-3.7457213401794434,-2.5208561420440674,1417
6.780210971832275,-3.0597779750823975,2.5211644172668457,-1.3777518272399902,-3.7457213401794434,-2.6519556045532227,1429
7.895908832550049,-3.1220271587371826,1.2282955646514893,-1.203218936920166,-3.7457213401794434,-2.6927242279052734,1441
9.131317138671875,-2.6144564151763916,0.8164928555488586,-1.0328161716461182,-3.7457213401794434,-2.643562078475952,1453
8.769792556762695,-2.116462469100952,0.13893377780914307,-0.936223566532135,-3.7457213401794434,-2.606790065765381,1465
7.778592586517334,-1.8938018083572388,-0.5482021570205688,-0.8277733325958252,-3.7457213401794434,-2.656751871109009,1477
8.870348930358887,-1.77888023853302,-0.8570541143417358,-0.7479678392410278,-3.7457213401794434,-2.6033263206481934,1489
9.172019004821777,-1.5897382497787476,-1.4460277557373047,-0.6720260381698608,-3.7457213401794434,-2.5176584720611572,1501
9.46171760559082,-1.5945266485214233,-1.7740333080291748,-0.5958177447319031,-3.7457213401794434,-2.3953521251678467,1513
10.874296188354492,-1.5250948667526245,-2.473140239715576,-0.5377289056777954,-3.7457213401794434,-2.2062971591949463,1525
9.705925941467285,-1.4436919689178467,-2.652705430984497,-0.49376264214515686,-3.7457213401794434,-1.9323735237121582,1537
10.31405258178711,-1.4963644742965698,-3.40687894821167,-0.4616538882255554,-3.7457213401794434,-1.6733720302581787,1549
10.895844459533691,-1.393413782119751,-3.7229137420654297,-0.4307442605495453,-3.7457213401794434,-1.3176445960998535,1562
9.899856567382812,-1.3120108842849731,-4.129928112030029,-0.3777182102203369,-3.7457213401794434,-0.9585865139961243,1574
9.399467468261719,-1.3287702798843384,-4.730872631072998,-0.3313537538051605,-3.7457213401794434,-0.683330774307251,1586
9.267786979675293,-1.1468110084533691,-5.458709716796875,-0.29817914962768555,-3.7457213401794434,-0.41047316789627075,1598
8.173636436462402,-0.976822555065155,-5.808263301849365,-0.3140336871147156,-3.7457213401794434,-0.18731087446212769,1610
8.21912670135498,-1.0678023099899292,-7.529694080352783,-0.39863550662994385,-3.7457213401794434,-0.09058499336242676,1622
6.705990314483643,-0.7254314422607422,-8.192888259887695,-0.49429553747177124,-3.7457213401794434,-0.05541194975376129,1634
5.219191074371338,0.14845219254493713,-9.471391677856445,-0.4998912513256073,-3.7457213401794434,-0.027433395385742188,1646
6.318130016326904,0.31125789880752563,-8.355693817138672,-0.5333322882652283,-3.7457213401794434,-0.109637051820755,1658
4.397980213165283,-0.35911858081817627,-12.856792449951172,-0.5278698205947876,-3.7457213401794434,-0.14481011033058167,1670
1.275941252708435,-0.6703647971153259,-10.546388626098633,-0.5515849590301514,-3.7457213401794434,-0.1934395134449005,1682
1.3334020376205444,-0.18194763362407684,-11.408300399780273,-0.6080750226974487,-3.7457213401794434,-0.2781745493412018,1694
-0.4694318473339081,-0.12927521765232086,-9.971780776977539,-0.7299816012382507,-3.7457213401794434,-0.3449234366416931,1706
-1.254729986190796,0.34956514835357666,-10.213594436645508,-0.876269519329071,-3.7457213401794434,-0.44311487674713135,1718
-16.211307525634766,3.8929836750030518,-0.5769325494766235,-1.1350046396255493,-3.7457213401794434,-0.6049907803535461,1730
-0.5675941109657288,-0.7661328315734863,-7.931920528411865,-1.0321500301361084,-3.7457213401794434,-1.74318528175354,1742
-4.3576154708862305,1.7190485000610352,-11.623779296875,-1.1992220878601074,-3.7457213401794434,-1.5974304676055908,1754
-6.811672210693359,2.2146482467651367,-12.670045852661133,-1.4279801845550537,-3.7457213401794434,-1.1950719356536865,1766
-1.958625316619873,0.2705564796924591,-8.453855514526367,-1.40040123462677,-3.7457213401794434,-0.9633827805519104,1778
0.45233580470085144,-0.325599730014801,-7.395618915557861,-1.3766860961914062,-3.7310662269592285,-0.7888498902320862,1790
-3.701604127883911,0.5267360806465149,-8.872840881347656,-1.2481179237365723,-2.6136555671691895,-0.6594824194908142,1802
-3.8452563285827637,1.1635936498641968,-10.060365676879883,-1.0951684713363647,-1.534216046333313,-0.5110628008842468,1814
-2.818143844604492,0.8691068887710571,-11.37478256225586,-1.0381454229354858,-0.7207059860229492,-0.3486539125442505,1826
-2.626607656478882,0.5937737226486206,-8.147397994995117,-0.9677993655204773,-0.151275634765625,-0.18984228372573853,1838
-2.870816230773926,1.0462777614593506,-8.81777572631836,-0.8433614373207092,0.37978407740592957,-0.09751302003860474,1850
-3.1174190044403076,1.0079705715179443,-8.791439056396484,-0.7321133017539978,0.8011944890022278,-0.06540429592132568,1862
-3.8476505279541016,1.1755646467208862,-9.354076385498047,-0.5741010308265686,1.2874884605407715,-0.10004439949989319,1874
-4.879551410675049,-2.3247580528259277,-9.758695602416992,-0.3281562030315399,1.7158269882202148,-0.1378820538520813,1886
-4.752658843994141,1.742990493774414,-9.382806777954102,-0.06968759745359421,2.3266921043395996,-0.1951715350151062,1898
-4.3360676765441895,1.8411527872085571,-10.929460525512695,0.17825573682785034,2.994180679321289,-0.2873675227165222,1910
-4.211569309234619,1.5275123119354248,-10.82890510559082,0.4321945011615753,3.621833324432373,-0.38529253005981445,1922
-4.5515456199646,1.5299065113067627,-11.211977005004883,0.6764073371887207,4.195260524749756,-0.4285926818847656,1934
-3.2060043811798096,1.2976689338684082,-10.979738235473633,0.937540590763092,4.625863552093506,-0.4822848439216614,1946
-2.8588452339172363,1.1420458555221558,-10.737924575805664,1.1925451755523682,4.913110256195068,-0.5249188542366028,1958
-2.7439236640930176,1.235419750213623,-11.420272827148438,1.3997198343276978,4.985588073730469,-0.5385084748268127,1970
-1.5540051460266113,0.8762895464897156,-10.611032485961914,1.5450750589370728,4.985588073730469,-0.5214548110961914,1982
-0.986579418182373,0.6919360160827637,-10.136980056762695,1.6427335739135742,4.966935634613037,-0.4996049404144287,1994
-1.4319008588790894,0.6991186141967773,-9.492938995361328,1.6539249420166016,4.683286190032959,-0.45643794536590576,2006
-0.5460463166236877,0.5051882266998291,-9.935867309570312,1.6300766468048096,4.407231330871582,-0.45297396183013916,2018
0.26319387555122375,0.34956514835357666,-8.197675704956055,1.4859203100204468,3.902817726135254,-0.4969403147697449,2030
0.5361328125,0.28492167592048645,-7.891218662261963,1.2699525356292725,3.403733730316162,-0.5572940707206726,2042
0.9048399925231934,0.021559491753578186,-6.5289177894592285,1.0049556493759155,2.945418357849121,-0.6055237650871277,2054
1.3310078382492065,0.18436521291732788,-8.015716552734375,0.6577549576759338,2.101531505584717,-0.5555620193481445,2066
2.329389810562134,-0.2753215432167053,-7.675740718841553,0.26339051127433777,1.4353752136230469,-0.5217213034629822,2078
1.8122423887252808,-0.17476503551006317,-5.896848678588867,-0.06742266565561295,0.8155834674835205,-0.5650213956832886,2090
2.810624361038208,-0.2346200793981552,-7.086766719818115,-0.3564012050628662,0.21511027216911316,-0.6422955393791199,2102
2.324601411819458,-3.536224126815796,-9.131414413452148,-0.47417759895324707,-0.20310258865356445,-0.6871944665908813,2114
2.92075777053833,0.363930344581604,-8.212041854858398,-0.7037350535392761,-0.8402143716812134,-0.7252986431121826,2126
2.437129020690918,-0.08139117062091827,-8.846506118774414,-0.8713399767875671,-1.4361575841903687,-0.7741944789886475,2138
2.437129020690918,0.10056815296411514,-9.799398422241211,-0.9952450394630432,-1.9712144136428833,-0.8158958554267883,2150
2.4060041904449463,-0.019141927361488342,-11.544771194458008,-0.8842633962631226,-1.4103108644485474,-0.7049142718315125,2162
0.9694833755493164,0.7661562561988831,-12.966926574707031,-0.5125482678413391,0.33741652965545654,-0.43978404998779297,2175
2.4467058181762695,0.03353050351142883,-8.571172714233398,-0.5932863354682922,-0.029901981353759766,-0.41033995151519775,2187
1.6542249917984009,-1.5394600629806519,-12.037975311279297,-0.5711699724197388,-0.6078590154647827,-0.4688284993171692,2199
2.2072856426239014,0.17239420115947723,-9.296615600585938,-0.5387948155403137,-1.0603123903274536,-0.5069326162338257,2211
1.9367409944534302,0.5027940273284912,-11.817708969116211,-0.5521179437637329,-1.65678870677948,-0.5271837711334229,2223
1.5105730295181274,0.46927523612976074,-11.520828247070312,-0.5285359621047974,-2.016246795654297,-0.5098636746406555,2235
1.4052281379699707,0.4309679865837097,-10.11064338684082,-0.5377289056777954,-2.539578914642334,-0.5287824869155884,2247
1.0748282670974731,0.584196925163269,-11.69560432434082,-0.5046876072883606,-2.855203628540039,-0.5237197875976562,2259
0.8952631950378418,0.4812462329864502,-10.77623176574707,-0.3117687702178955,-2.546506881713867,-0.4539065957069397,2271
0.30868372321128845,0.6823591589927673,-10.419496536254883,-0.2856554090976715,-2.738492965698242,-0.4537733793258667,2283
0.00940847396850586,0.7422142028808594,-10.692434310913086,-0.26353904604911804,-2.9847044944763184,-0.4721592664718628,2295
-0.49576807022094727,0.8020692467689514,-10.690040588378906,-0.24248851835727692,-3.088624954223633,-0.4886799454689026,2307
-0.7160346508026123,0.6991186141967773,-9.720388412475586,-0.23143033683300018,-3.0647764205932617,-0.5065329074859619,2319
-1.087135910987854,0.7853098511695862,-10.441043853759766,-0.20425115525722504,-2.970315456390381,-0.5414395332336426,2331
-1.5013327598571777,0.7948866486549377,-9.787425994873047,-0.16921132802963257,-2.6886649131774902,-0.5554287433624268,2343
-1.637802243232727,0.8331938982009888,-9.227182388305664,-0.1522909700870514,-2.3289403915405273,-0.5660873055458069,2355
-1.9011644124984741,0.7924924492835999,-9.425901412963867,-0.12711025774478912,-1.8307887315750122,-0.5546294450759888,2367
-1.838915228843689,0.7805214524269104,-9.057195663452148,-0.10392802208662033,-1.3029265403747559,-0.5297151803970337,2379
-1.9777789115905762,0.7541852593421936,-8.619056701660156,-0.09593414515256882,-0.789719820022583,-0.4998713731765747,2391
-2.0663645267486572,0.7829156517982483,-9.028465270996094,-0.07568299770355225,-0.2204226851463318,-0.4540398120880127,2403
-1.9514427185058594,0.7924924492835999,-8.810592651367188,-0.07168606668710709,0.2857228219509125,-0.4050107002258301,2415
-1.9777789115905762,0.7829156517982483,-9.100290298461914,-0.05809647589921951,0.7756140828132629,-0.34758806228637695,2427
-1.8197616338729858,0.8140403032302856,-9.097896575927734,-0.040243491530418396,1.2255359888076782,-0.28856661915779114,2439
-1.7096283435821533,0.8260113000869751,-9.363653182983398,-0.0154624804854393,1.5831286907196045,-0.23713934421539307,2451
-1.5013327598571777,0.7829156517982483,-9.655744552612305,0.019710566848516464,1.9184716939926147,-0.19477182626724243,2463
-1.3121908903121948,0.7757330536842346,-9.653350830078125,0.0603460967540741,2.1726768016815186,-0.15640121698379517,2475
-1.1182605028152466,0.8188287019729614,-10.045999526977539,0.11283920705318451,2.3675942420959473,-0.12868914008140564,2487
-0.8309563398361206,0.7924924492835999,-10.103460311889648,0.18145327270030975,2.503356695175171,-0.10297548770904541,2499
-0.6801216006278992,0.8451648950576782,-10.122613906860352,0.24846859276294708,2.553318500518799,-0.08685451745986938,2511
-0.3257797360420227,0.7374258041381836,-10.371612548828125,0.3266753554344177,2.534133195877075,-0.07566308975219727,2523
-0.04805237054824829,0.6703881621360779,-10.230354309082031,0.40195101499557495,2.4222190380096436,-0.0683353841304779,2535
0.26798227429389954,0.6727823615074158,-10.316545486450195,0.4652358293533325,2.241424083709717,-0.06407198309898376,2547
0.39966335892677307,0.5722258687019348,-10.156133651733398,0.5120000243186951,1.9897503852844238,-0.06034150719642639,2559
0.5888053178787231,0.5387070775032043,-9.904743194580078,0.5241240859031677,1.674525260925293,-0.05980856716632843,2571
0.7324573993682861,0.4333621859550476,-9.811368942260742,0.4954793453216553,1.300278663635254,-0.05967535078525543,2584
0.9024457931518555,0.3687187433242798,-9.406747817993164,0.43845635652542114,0.9165727496147156,-0.06753599643707275,2596
1.0700398683547974,0.3375941216945648,-9.722782135009766,0.36051610112190247,0.5238070487976074,-0.06806892156600952,2608
1.0700398683547974,0.3184404969215393,-9.61025619506836,0.2676539123058319,0.13090810179710388,-0.07126644253730774,2620
1.0149732828140259,0.26576805114746094,-9.320556640625,0.16106891632080078,-0.2563951015472412,-0.08112558722496033,2632
0.8378022909164429,0.28252747654914856,-9.567159652709961,0.048888206481933594,-0.602263331413269,-0.09271669387817383,2644
0.6582372188568115,0.33519992232322693,-9.524065017700195,-0.05449923127889633,-0.9301455020904541,-0.11803063750267029,2656
