accel_x,accel_y,accel_z,gyro_x,gyro_y,gyro_z,time
0.36375030875205994,0.26337385177612305,9.811508178710938,0.0013246554881334305,-0.001790165901184082,0.02172894775867462,3
0.4212111532688141,0.2537970542907715,9.88572883605957,-0.0005405815318226814,-0.0037887096405029297,0.02266155183315277,16
0.440364807844162,0.2681622803211212,9.904882431030273,0.0015911189839243889,-0.0033889412879943848,0.026791736483573914,28
0.3661445081233978,0.25858545303344727,9.892911911010742,-0.0026722815819084644,0.0026064515113830566,0.021862179040908813,40
0.3661445081233978,0.2514028549194336,9.909671783447266,-0.0032052062451839447,-0.007252633571624756,0.021595701575279236,52
0.39966335892677307,0.2466144561767578,9.912065505981445,-0.0013399692252278328,-0.0012573003768920898,0.022794798016548157,64
0.36375030875205994,0.26337385177612305,9.909671783447266,-0.0028055128641426563,-0.0032557249069213867,0.022794798016548157,76
0.3972691595554352,0.26097965240478516,9.959949493408203,0.002656967379152775,-0.0029892921447753906,0.022928014397621155,88
0.3230489194393158,0.23224924504756927,9.936006546020508,-0.001206737942993641,-0.00445479154586792,0.02332770824432373,100
0.4212111532688141,0.23464344441890717,9.861787796020508,0.000658499076962471,-0.002856016159057617,0.02266155183315277,112
0.33741411566734314,0.28492167592048645,9.88812255859375,-0.00040735118091106415,-0.002323150634765625,0.02266155183315277,124
0.3876923620700836,0.2753448784351349,9.859392166137695,-0.0014732005074620247,-0.001656949520111084,0.022528335452079773,136
0.440364807844162,0.28013327717781067,9.959949493408203,-0.0014732005074620247,-0.003522157669067383,0.02199539542198181,148
0.3661445081233978,0.2968927025794983,9.99586296081543,0.0013246554881334305,-0.007652401924133301,0.02239510416984558,160
0.4212111532688141,0.2561912536621094,9.890518188476562,0.0005252687260508537,-0.006852984428405762,0.022794798016548157,172
0.3852981626987457,0.2514028549194336,9.904882431030273,-0.00014088768512010574,-0.003522157669067383,0.023460954427719116,184
0.38050976395606995,0.26576805114746094,9.986286163330078,-0.0013399692252278328,-0.002856016159057617,0.022794798016548157,196
0.40445175766944885,0.22985504567623138,9.921642303466797,-0.001206737942993641,-0.004188358783721924,0.022528335452079773,208
0.3852981626987457,0.24182605743408203,9.892911911010742,-0.0009402753785252571,-0.004588007926940918,0.019863709807395935,220
0.38290396332740784,0.23703765869140625,9.835451126098633,-0.0013399692252278328,-0.0048545002937316895,0.02013017237186432,232
0.45473000407218933,0.23943185806274414,9.93840217590332,0.0015911189839243889,-0.0031225085258483887,0.022261857986450195,244
0.40445175766944885,0.2250666320323944,9.99825668334961,-0.0018728943541646004,-0.0036554336547851562,0.023194491863250732,256
0.38050976395606995,0.24422025680541992,9.926429748535156,-0.0016064317896962166,-0.0021898746490478516,0.022528335452079773,268
0.38290396332740784,0.23224924504756927,9.986286163330078,0.00012557487934827805,0.002073526382446289,0.02505972981452942,280
0.38050976395606995,0.24182605743408203,9.924036026000977,-0.0009402753785252571,-0.001790165901184082,0.019863709807395935,292
19.21270179748535,19.78270149230957,20.632701873779297,-3.8422634601593018,4.281460762023926,-0.17478713393211365,304
4.661342144012451,-0.6105097532272339,-10.603849411010742,2.281843662261963,-2.9200873374938965,0.9225053787231445,316
-9.146018028259277,0.49082303047180176,20.632701873779297,-3.921802520751953,4.766422748565674,4.555588245391846,328
-7.81723690032959,-7.666222095489502,6.069371223449707,1.478192925453186,-0.5439079999923706,-0.40234607458114624,340
3.164966344833374,-1.9081670045852661,11.540122985839844,1.7399922609329224,-2.3960886001586914,-2.0259017944335938,352
4.031667232513428,-0.9433037638664246,12.591176986694336,0.9033001661300659,0.4846370816230774,-1.2736783027648926,364
-10.266505241394043,14.599853515625,5.403783321380615,0.601797878742218,-1.1828850507736206,-1.2734119892120361,376
-7.508384704589844,8.870529174804688,5.760519504547119,0.16799692809581757,0.2013874351978302,0.10020214319229126,388
-0.7256114482879639,1.9728338718414307,7.946425437927246,-0.4226171374320984,0.4617213010787964,0.6269984245300293,400
2.2024972438812256,-0.39503157138824463,11.556880950927734,-0.6273935437202454,0.21377795934677124,0.6316615343093872,412
0.29431846737861633,-0.30405193567276,9.947978973388672,-0.30590659379959106,-0.019243478775024414,-0.1508055329322815,424
0.7516109943389893,0.8643184900283813,10.240070343017578,-0.033182237297296524,-0.0454900860786438,-0.09924504160881042,436
-0.2731073200702667,0.5363128781318665,9.641519546508789,-0.04037672281265259,-0.09864926338195801,0.03451915085315704,448
0.06447511911392212,0.23464344441890717,9.631942749023438,0.12816078960895538,-0.1266278624534607,-0.03422817587852478,460
0.2081272304058075,1.644828200340271,10.54892349243164,0.24047471582889557,-0.05614858865737915,0.05690199136734009,472
-3.196427583694458,-1.0223125219345093,13.644624710083008,0.05341807007789612,0.1502266526222229,0.010670751333236694,484
0.12193599343299866,-0.19870705902576447,9.799537658691406,0.2645895779132843,-0.05454975366592407,-0.0158422589302063,496
0.3876923620700836,-0.22983168065547943,9.732500076293945,0.1524088829755783,-0.01711183786392212,0.02719143033027649,508
0.4188169538974762,-0.1699766367673874,9.725317001342773,-0.15815313160419464,-0.003921926021575928,-0.03849157691001892,520
-0.7926490902900696,2.7916510105133057,9.993467330932617,-0.3131010830402374,0.08800762891769409,-0.02157120406627655,532
0.38050976395606995,1.070219874382019,9.991073608398438,-0.34267839789390564,0.04310870170593262,0.14376875758171082,544
0.49064305424690247,0.7757330536842346,10.218523025512695,-0.1556217521429062,0.07401841878890991,0.12964624166488647,556
1.0221558809280396,-0.16039983928203583,10.362174987792969,0.07739969342947006,0.04111027717590332,0.03598468005657196,568
0.7300631999969482,0.6320809125900269,10.022197723388672,0.07739969342947006,-0.0011240839958190918,-0.05301378667354584,580
0.47148939967155457,0.6727823615074158,9.859392166137695,0.02916998602449894,0.010866761207580566,0.02945636212825775,592
0.2823474705219269,0.5315244793891907,9.811508178710938,0.003989280201494694,-0.006053566932678223,0.017065852880477905,604
0.42599955201148987,0.2561912536621094,10.041351318359375,0.006254211068153381,-0.006320059299468994,0.03012251853942871,616
0.49782565236091614,0.14126957952976227,9.988679885864258,0.01238284818828106,-0.007119417190551758,0.010271057486534119,628
0.33980831503868103,0.26576805114746094,9.83305549621582,-0.015595711767673492,0.006470143795013428,0.02945636212825775,640
0.38290396332740784,0.5171592235565186,9.895305633544922,0.010917305946350098,-0.006053566932678223,0.010803982615470886,652
0.3852981626987457,0.5746200680732727,9.811508178710938,-0.0016064317896962166,-0.002856016159057617,0.020663082599639893,664
0.423605352640152,0.46448683738708496,9.756441116333008,-0.0008070440962910652,-0.005120992660522461,0.025459423661231995,676
0.40445175766944885,0.2921043038368225,10.046140670776367,-0.0032052062451839447,-0.006053566932678223,0.027724355459213257,688
0.4667010009288788,0.21309563517570496,10.003044128417969,-0.0014732005074620247,-0.0007243156433105469,0.024260327219963074,700
0.5265560150146484,0.30407530069351196,10.06529426574707,0.0009249616414308548,-0.004188358783721924,0.020929545164108276,712
2.439523220062256,5.738913059234619,9.52659797668457,-0.30630624294281006,0.6173353791236877,-0.2665834426879883,724
-6.198756694793701,0.16281740367412567,17.42267608642578,-0.9713966250419617,-1.3059908151626587,-0.41007351875305176,736
-1.6066776514053345,-6.246460437774658,9.368581771850586,0.5688897371292114,-0.2024364471435547,1.1736462116241455,748
2.7723171710968018,0.8212229013442993,10.706939697265625,0.3306722640991211,0.1933935582637787,-0.1261577308177948,760
0.2296750247478485,-1.4867876768112183,9.540964126586914,0.6093920469284058,0.10439509153366089,0.3569387197494507,772
-0.38324058055877686,-0.9840051531791687,9.797143936157227,0.960189938545227,-0.2137610912322998,-0.16799232363700867,784
0.33501991629600525,-0.8259878754615784,9.248870849609375,0.5782158970832825,-0.2814425230026245,-0.5674195885658264,796
1.8385785818099976,1.5514543056488037,9.9407958984375,-0.5489203333854675,0.43440890312194824,-0.086588054895401,808
1.9511061906814575,0.17718259990215302,10.745246887207031,-1.0919709205627441,0.5515191555023193,0.4832419753074646,820
0.5744401216506958,-0.46446341276168823,10.48427963256836,-0.5727687478065491,0.09666770696640015,0.473382830619812,832
0.9646949768066406,-0.8307762742042542,9.99586296081543,0.2879050672054291,0.05096936225891113,0.3446814715862274,844
0.28953006863594055,-0.24898530542850494,10.060504913330078,0.661885142326355,-0.10184687376022339,-0.1921072006225586,856
0.14348378777503967,-0.16039983928203583,9.806720733642578,0.4472496211528778,-0.105044424533844,-0.5317136645317078,868
0.636689305305481,-0.004776716232299805,9.737287521362305,-0.10099693387746811,-0.09305357933044434,-0.5269172787666321,880
0.8258312940597534,0.7158780097961426,10.354991912841797,-0.6543062925338745,0.14263248443603516,0.08154977113008499,892
0.40445175766944885,0.950509786605835,10.199369430541992,-0.775280237197876,0.10626035928726196,0.6459172964096069,904
0.06447511911392212,0.7206664085388184,9.744470596313477,-0.4192863702774048,-0.04682236909866333,0.6112772226333618,916
0.33741411566734314,0.9792401790618896,9.70616340637207,0.08019755035638809,0.014730453491210938,0.36879631876945496,928
0.4858545958995819,1.4149848222732544,9.88812255859375,0.09911638498306274,0.003938734531402588,-0.08085912466049194,940
0.33501991629600525,0.5770142674446106,9.746864318847656,-0.06635681539773941,-0.01804441213607788,-0.08805358409881592,952
0.44994160532951355,0.08141453564167023,9.933612823486328,-0.09699999541044235,-0.022973954677581787,0.018931075930595398,964
0.49543145298957825,0.05747251957654953,10.036563873291016,-0.02025880478322506,-0.0056539177894592285,0.017732009291648865,976
0.5050082206726074,-0.0287187397480011,10.079658508300781,-0.022656966000795364,-0.004321575164794922,0.019863709807395935,988
0.38050976395606995,0.06226092576980591,9.94558334350586,0.04742266237735748,0.002073526382446289,0.023194491863250732,1000
0.3541735112667084,0.42139118909835815,9.904882431030273,0.011183766648173332,0.0024732351303100586,0.02505972981452942,1012
0.2703764736652374,0.545889675617218,9.799537658691406,-0.00920061208307743,-0.003921926021575928,0.02332770824432373,1024
0.37572136521339417,0.2968927025794983,9.904882431030273,-0.027586523443460464,-0.008584976196289062,0.022128641605377197,1036
0.4188169538974762,0.0885971412062645,10.01262092590332,-0.013197549618780613,-0.005254209041595459,0.022528335452079773,1048
0.4379706084728241,-0.014353528618812561,9.991073608398438,0.0025237370282411575,-0.00032466650009155273,0.0237274169921875,1060
0.5193734169006348,0.15084639191627502,9.94318962097168,0.019977029412984848,0.0007412433624267578,0.0237274169921875,1072
0.36375030875205994,0.3375941216945648,9.864181518554688,0.022641653195023537,0.0026064515113830566,0.0237274169921875,1084
0.3541735112667084,0.5171592235565186,9.76123046875,0.009451761841773987,-0.001790165901184082,0.023194491863250732,1096
0.3230489194393158,0.3687187433242798,9.801931381225586,-0.006269524805247784,-0.004188358783721924,0.021862179040908813,1108
0.44994160532951355,0.1364811807870865,9.981496810913086,-0.009467074647545815,-0.0001913905143737793,0.023194491863250732,1120
0.4571242034435272,0.07662613689899445,10.003044128417969,-0.005336906295269728,-0.0021898746490478516,0.02332770824432373,1132
0.3924807608127594,0.09577974677085876,9.979103088378906,0.0029234299436211586,-0.0001913905143737793,0.02266155183315277,1144
0.30150106549263,0.3399883210659027,9.87136459350586,0.0215758066624403,0.001407325267791748,0.021595701575279236,1156
0.30628952383995056,0.45251578092575073,9.76601791381836,0.010917305946350098,-0.002722799777984619,0.02439357340335846,1168
0.4331822097301483,0.39744916558265686,9.81869125366211,-0.013197549618780613,-0.0057871341705322266,0.021196022629737854,1180
0.483460396528244,0.20830723643302917,9.895305633544922,-0.02225727215409279,-0.006453335285186768,0.019197553396224976,1192
0.5097966194152832,0.06226092576980591,10.029380798339844,-0.013064318336546421,-0.006586551666259766,0.02199539542198181,1204
0.45473000407218933,0.09577974677085876,9.955160140991211,0.0038560498505830765,-0.0020566582679748535,0.02239510416984558,1216
0.4571242034435272,0.3232288956642151,9.88333511352539,0.007719755172729492,-0.0020566582679748535,0.02266155183315277,1228
0.38290396332740784,0.3711129426956177,9.809114456176758,0.011450229212641716,-0.006186783313751221,0.02785758674144745,1240
0.3469909131526947,0.44533318281173706,9.828268051147461,-0.0195926483720541,-0.0020566582679748535,0.02599233388900757,1252
0.40684595704078674,0.15324059128761292,9.936006546020508,-0.01892649382352829,-0.00871819257736206,0.02239510416984558,1264
0.4882487952709198,0.07183773070573807,10.022197723388672,-0.005336906295269728,-0.0013905167579650879,0.02332770824432373,1276
0.45473000407218933,0.1364811807870865,10.026987075805664,0.007719755172729492,-0.0012573003768920898,0.021595701575279236,1288
0.40924015641212463,0.28013327717781067,9.878545761108398,0.018911179155111313,-0.0009908080101013184,0.02439357340335846,1300
0.30628952383995056,0.4285737872123718,9.890518188476562,0.014647778123617172,-0.005387425422668457,0.02306126058101654,1312
0.38290396332740784,0.35435354709625244,9.842632293701172,-0.001206737942993641,-0.006586551666259766,0.023860648274421692,1324
0.4379706084728241,0.2777390778064728,9.986286163330078,-0.014263398945331573,-0.004321575164794922,0.021595701575279236,1336
0.4427590072154999,0.011982694268226624,10.041351318359375,-0.007468606345355511,-0.0021898746490478516,0.021196022629737854,1348
0.4212111532688141,0.12451016902923584,9.955160140991211,0.004655436612665653,-0.0037887096405029297,0.020929545164108276,1360
0.3661445081233978,0.2011246234178543,10.000650405883789,0.011450229212641716,-0.00445479154586792,0.02199539542198181,1372
0.33980831503868103,0.46209263801574707,9.866575241088867,0.009851453825831413,-0.008851408958435059,0.023460954427719116,1384
0.3876923620700836,0.4118143916130066,9.821084976196289,-0.008001531474292278,-0.002456367015838623,0.022261857986450195,1396
0.423605352640152,0.2274608463048935,9.924036026000977,-0.015728943049907684,-0.006852984428405762,0.022128641605377197,1408
0.4595184028148651,0.12929856777191162,9.936006546020508,-0.011332312598824501,-0.004188358783721924,0.022528335452079773,1420
0.4667010009288788,0.0885971412062645,10.024593353271484,0.00012557487934827805,-0.0011240839958190918,0.0237274169921875,1432
0.40684595704078674,0.23703765869140625,9.94558334350586,0.0075865238904953,-0.0004578828811645508,0.019597232341766357,1444
0.3230489194393158,0.2897101044654846,9.856998443603516,0.009584993124008179,-0.0029892921447753906,0.02466002106666565,1456
0.36135610938072205,0.38068974018096924,9.88333511352539,-0.0018728943541646004,-0.006852984428405762,0.02266155183315277,1468
0.3733271658420563,0.28731587529182434,9.933612823486328,-0.012131699360907078,-0.004721283912658691,0.02266155183315277,1480
0.47388359904289246,0.1364811807870865,9.924036026000977,-0.006935681216418743,-0.002589583396911621,0.021329239010810852,1492
0.44515320658683777,0.05986672639846802,10.007833480834961,0.0014578867703676224,-5.817413330078125e-05,0.022128641605377197,1504
0.38290396332740784,0.18197101354599,9.94318962097168,0.012649310752749443,-0.002722799777984619,0.023460954427719116,1516
0.2751648724079132,0.363930344581604,9.9407958984375,0.01238284818828106,-0.001656949520111084,0.022528335452079773,1528
0.28953006863594055,0.39505496621131897,9.864181518554688,0.00199081189930439,-0.0008575320243835449,0.025459423661231995,1540
0.40445175766944885,0.2968927025794983,9.892911911010742,-0.009067380800843239,-0.006586551666259766,0.02199539542198181,1552
0.483460396528244,0.11493336409330368,9.94558334350586,-0.01053292490541935,-0.0021898746490478516,0.02239510416984558,1564
0.44754740595817566,0.14126957952976227,10.015016555786133,-0.001073506660759449,-0.004055142402648926,0.02239510416984558,1576
0.4667010009288788,0.21548983454704285,9.99586296081543,0.006787136197090149,-0.0007243156433105469,0.025459423661231995,1588
0.7444283962249756,2.7772858142852783,1.1684404611587524,-0.4491301476955414,0.36059877276420593,-0.39728325605392456,1600
3.318195104598999,2.3750598430633545,6.797208786010742,-0.2343614101409912,0.16221746802330017,-0.6153828501701355,1612
2.077998638153076,-3.864229679107666,6.945649147033691,-0.02039203606545925,0.14169985055923462,0.7177289128303528,1624
-1.695263147354126,0.8427706956863403,9.959949493408203,0.21409495174884796,-0.028036773204803467,0.3564058244228363,1636
-0.40239420533180237,-1.2066659927368164,8.255277633666992,0.2725834846496582,0.1075926423072815,0.2231745719909668,1648
0.9599065780639648,0.4549099802970886,10.505826950073242,0.12856048345565796,-0.016578853130340576,-0.005849927663803101,1660
-0.06481176614761353,0.7086954116821289,9.904882431030273,-0.012797855772078037,0.057630956172943115,0.014934137463569641,1672
-0.02889874577522278,0.4764578342437744,9.555328369140625,-0.14123277366161346,0.029252707958221436,0.04118071496486664,1684
0.24643447995185852,0.1340869814157486,9.878545761108398,0.04089433699846268,-0.022174537181854248,0.04597702622413635,1696
0.40924015641212463,0.30646950006484985,10.086841583251953,-0.005070443730801344,-0.00445479154586792,0.0237274169921875,1708
0.31107792258262634,0.17000000178813934,9.727710723876953,0.05155283212661743,0.0030061006546020508,0.022261857986450195,1720
0.4355764091014862,0.4764578342437744,10.050928115844727,-0.009733537212014198,-0.0033889412879943848,0.023860648274421692,1732
3.911957263946533,2.42533802986145,0.23470181226730347,-1.0257550477981567,0.35047319531440735,-0.3029555678367615,1744
2.2024972438812256,-2.470804452896118,-4.89846658706665,0.48442116379737854,1.143465518951416,0.512419581413269,1756
-2.1645267009735107,-4.589673042297363,7.716582298278809,0.8201638460159302,0.23949158191680908,0.6898835897445679,1768
1.3860745429992676,-1.0869559049606323,9.665462493896484,0.5024073719978333,0.05496633052825928,0.25355130434036255,1780
1.1514427661895752,0.7948866486549377,9.435619354248047,0.39342421293258667,-0.008052051067352295,0.028656959533691406,1792
0.5313444137573242,-0.31841713190078735,9.821084976196289,-0.02385604940354824,-0.022574305534362793,0.023860648274421692,1804
0.21291562914848328,-0.5889618992805481,8.619195938110352,-0.35107195377349854,-0.0311010479927063,0.18160642683506012,1816
-0.9195417165756226,2.1356396675109863,9.916852951049805,-0.6151363253593445,-0.0005910992622375488,0.17561101913452148,1828
0.19376203417778015,0.9576923847198486,10.68060302734375,-0.21051301062107086,-0.058946430683135986,0.2901898920536041,1840
0.2296750247478485,-0.21067805588245392,9.751653671264648,0.2679203748703003,0.0513690710067749,0.23982848227024078,1852
0.4188169538974762,0.44533318281173706,9.528993606567383,0.09845022857189178,0.054166972637176514,0.15282848477363586,1864
0.33980831503868103,0.5937737226486206,9.701375961303711,-0.02039203606545925,-0.012182235717773438,0.1012679934501648,1876
0.9503297805786133,-1.0366777181625366,5.1284499168396,0.3467932939529419,0.3230275809764862,-0.048617154359817505,1888
1.1825673580169678,2.363088846206665,10.951148986816406,-1.1697778701782227,-0.10824191570281982,-0.38755738735198975,1900
0.5433154106140137,-5.315115928649902,8.477937698364258,0.2937672436237335,0.3215620219707489,0.22890351712703705,1912
1.443535327911377,-1.8052164316177368,9.572088241577148,0.8352190256118774,0.2109801173210144,0.298450231552124,1924
1.1466543674468994,-0.6631821990013123,9.574481964111328,0.5664915442466736,0.06589126586914062,0.45752832293510437,1936
-0.601112961769104,0.32801729440689087,11.188175201416016,-0.0036049000918865204,-0.19724041223526,0.15296171605587006,1948
0.2536170780658722,-0.10533319413661957,9.162679672241211,-0.4236829876899719,0.004338443279266357,0.11778866499662399,1960
0.3900865614414215,0.4118143916130066,9.531387329101562,-0.7081316709518433,-0.05934607982635498,0.2179785519838333,1972
0.38050976395606995,0.3878723382949829,10.048534393310547,-0.16667994856834412,-0.0473552942276001,0.3842511475086212,1984
-0.26831889152526855,0.7589736580848694,10.055717468261719,0.15227563679218292,0.1271776556968689,0.34787899255752563,1996
0.33262571692466736,0.4357563853263855,10.005439758300781,-0.011065850034356117,-0.015113294124603271,0.2579479217529297,2008
1.5967642068862915,-1.314405083656311,4.659186363220215,0.3868958652019501,0.3247595727443695,0.10792955756187439,2020
-6.0407395362854,5.008681774139404,5.248160362243652,-1.2482510805130005,-0.5533674955368042,-0.37436753511428833,2032
-0.5580173134803772,-3.1052677631378174,10.072477340698242,0.457241952419281,-0.30369216203689575,-0.5542296767234802,2044
-0.29226094484329224,-1.8914076089859009,8.983114242553711,0.41234302520751953,0.10213017463684082,0.33948543667793274,2056
-0.3736637830734253,-0.325599730014801,9.675039291381836,0.4620382785797119,0.07335221767425537,0.25168606638908386,2068
0.5121908187866211,0.6703881621360779,10.560894012451172,0.04156048595905304,-0.057880520820617676,-0.017574265599250793,2080
0.6390835046768188,0.45012158155441284,9.114795684814453,-0.2873874306678772,0.019793272018432617,0.0963384360074997,2092
0.5433154106140137,0.7158780097961426,9.904882431030273,-0.1490934193134308,0.0006079673767089844,0.19732771813869476,2104
-0.07678276300430298,1.0510661602020264,10.043746948242188,-0.09726645797491074,0.035114824771881104,0.2113170027732849,2116
-0.15818563103675842,0.4070259630680084,10.005439758300781,-0.11405359208583832,-0.06281012296676636,0.04730933904647827,2128
1.1418659687042236,-0.2154664844274521,11.001426696777344,-0.12950842082500458,-0.13755279779434204,-0.06473812460899353,2140
0.6558430194854736,0.03353050351142883,9.971920013427734,-0.07075344771146774,-0.04082691669464111,0.10673047602176666,2152
0.40924015641212463,0.4812462329864502,9.70616340637207,-0.00813476275652647,-0.0013905167579650879,0.1520290970802307,2164
0.11235913634300232,0.9289619326591492,9.787567138671875,0.05981317162513733,-0.0033889412879943848,0.015733540058135986,2176
1.4770541191101074,1.2545733451843262,11.140291213989258,-0.03344869613647461,-0.019376695156097412,-0.033162325620651245,2188
0.40445175766944885,-1.5035470724105835,9.050151824951172,-0.0912710502743721,0.03591424226760864,0.01746554672718048,2200
1.6326771974563599,-0.4500982165336609,11.370134353637695,-0.1636156290769577,-0.04162633419036865,0.03878253698348999,2212
0.5816227197647095,-0.03111293911933899,10.515403747558594,0.2595268189907074,0.052967846393585205,0.013068914413452148,2224
0.4164227545261383,0.6536287665367126,9.507444381713867,0.3581179082393646,0.11532008647918701,0.10326646268367767,2236
0.47867199778556824,0.7637620568275452,9.873758316040039,0.09964931011199951,0.03591424226760864,0.11778866499662399,2248
0.5050082206726074,0.5506780743598938,9.5816650390625,-0.10246247798204422,-0.008851408958435059,0.07901837676763535,2260
-0.009745121002197266,0.39984336495399475,10.37175178527832,-0.17094334959983826,-0.02204132080078125,0.02892342209815979,2272
0.612747311592102,-0.7254314422607422,9.852210998535156,-0.11511944234371185,-0.05614858865737915,-0.01517610251903534,2284
0.6630256175994873,-0.3303881287574768,10.156272888183594,-0.016528330743312836,-0.029768764972686768,0.1291133165359497,2296
0.8761094808578491,0.8547416925430298,9.478713989257812,0.19744102656841278,-0.03589743375778198,0.25328484177589417,2308
3.2798879146575928,-1.2521559000015259,9.394918441772461,-0.7494333982467651,-0.10078102350234985,0.5870290994644165,2320
-1.7503297328948975,-3.2393431663513184,8.889740943908691,0.3999525308609009,-0.31008732318878174,-0.48135221004486084,2332
-1.087135910987854,-1.0678023099899292,8.691022872924805,0.533183753490448,0.055765748023986816,0.06849310547113419,2344
0.4212111532688141,-0.007170930504798889,9.979103088378906,0.056082695722579956,-0.005920350551605225,0.17614394426345825,2356
0.47627779841423035,0.3902665376663208,9.804325103759766,-0.13776876032352448,-0.020442545413970947,0.06569524854421616,2368
0.37572136521339417,0.5434954762458801,9.555328369140625,-0.051301680505275726,-0.012315452098846436,0.06103216111660004,2380
0.22009822726249695,0.790098249912262,9.567300796508789,0.0013246554881334305,0.007535994052886963,0.1241837665438652,2392
0.3852981626987457,0.5698316693305969,9.794748306274414,-0.08767381310462952,-0.0344318151473999,0.03092189133167267,2404
0.5720459222793579,-0.0742085725069046,10.402875900268555,-0.2050505429506302,-0.07586675882339478,0.03278714418411255,2416
0.6295067071914673,-0.5362895131111145,10.213733673095703,-0.132572740316391,-0.04695558547973633,0.034252673387527466,2428
-0.5029506683349609,1.1947182416915894,12.631877899169922,-0.2261010855436325,-0.05041956901550293,0.15575957298278809,2440
-0.007350921630859375,0.524341881275177,9.014239311218262,0.19171209633350372,-0.008984625339508057,0.0847473219037056,2452
0.3278373181819916,1.0247299671173096,10.37175178527832,0.2740490138530731,0.040044426918029785,-0.024502292275428772,2464
0.06447511911392212,0.8451648950576782,10.168245315551758,0.05128636956214905,0.02312403917312622,-0.0536799430847168,2476
0.3876923620700836,0.25858545303344727,10.290348052978516,-0.1308407336473465,-0.017911136150360107,-0.007315471768379211,2488
0.5313444137573242,-0.5386837124824524,9.739683151245117,-0.13630323112010956,-0.04469066858291626,0.02532617747783661,2500
0.6271125078201294,-0.007170930504798889,10.31907844543457,-0.02438897266983986,-0.02110874652862549,0.062231242656707764,2512
1.9080103635787964,-2.3941898345947266,1.8412110805511475,0.2976309359073639,0.22177183628082275,0.10300000011920929,2524
1.443535327911377,-0.1891302615404129,7.426883697509766,-0.14789433777332306,0.08654212951660156,0.2857932448387146,2536
0.1386953890323639,0.33280572295188904,9.677433013916016,-0.3552021384239197,0.35700154304504395,0.42168912291526794,2548
-0.08635959029197693,-0.4237620234489441,8.691022872924805,-0.0814119428396225,0.010467112064361572,0.02692495286464691,2560
-0.04326394200325012,-0.32320553064346313,9.449983596801758,0.5024073719978333,-0.5020735263824463,-0.45110875368118286,2572
-1.0368576049804688,-0.05266076326370239,9.054941177368164,0.055949464440345764,-0.008052051067352295,0.01626645028591156,2584
0.1339069902896881,0.3447767198085785,9.528993606567383,0.021309340372681618,-0.005520641803741455,0.11299233883619308,2596
0.2344634234905243,0.5770142674446106,9.45237922668457,0.0883246585726738,0.005670726299285889,0.019730478525161743,2608
0.23925182223320007,0.5770142674446106,9.856998443603516,-0.09473506361246109,-0.017245054244995117,0.011869832873344421,2620
0.5313444137573242,0.016771093010902405,10.074871063232422,-0.1556217521429062,-0.0672067403793335,0.0016110241413116455,2632
0.6678140163421631,-0.39263737201690674,10.163455963134766,-0.11711791157722473,-0.04802143573760986,0.04317918419837952,2644
1.8433669805526733,0.035924702882766724,8.063741683959961,0.20823276042938232,0.12158194184303284,0.04877488315105438,2656
1.7739351987838745,0.7517910003662109,10.48188591003418,-0.3369494378566742,0.17047777771949768,0.45659568905830383,2668
0.2751648724079132,0.1795768141746521,9.308725357055664,-0.56171053647995,0.906713604927063,1.3343231678009033,2680
-2.980949640274048,-2.3271522521972656,7.733341693878174,0.25886064767837524,0.02525573968887329,-0.162396639585495,2692
-0.009745121002197266,-0.30405193567276,9.562511444091797,1.2008055448532104,-0.997693657875061,-0.7235665917396545,2704
2.971035957336426,-0.7374024391174316,6.93607234954834,0.0007917303591966629,0.023390531539916992,0.0089387446641922,2716
-1.6090718507766724,-0.41179096698760986,11.130714416503906,-0.42155128717422485,-0.0037887096405029297,0.5911592841148376,2728
0.11954173445701599,0.3136520981788635,9.924036026000977,0.008119449019432068,0.17194336652755737,0.28792494535446167,2740
0.35656771063804626,0.8523474931716919,9.873758316040039,-0.19199387729167938,0.12198162078857422,0.2658085823059082,2752
1.2136919498443604,0.7517910003662109,8.743694305419922,-0.20558346807956696,0.2773292660713196,0.17601071298122406,2764
-4.3121256828308105,0.9409329891204834,13.084383010864258,-0.5944854021072388,-0.5946692228317261,0.8263124227523804,2776
-3.19403338432312,-3.8522586822509766,7.503498077392578,1.5454747676849365,-0.9642527103424072,-0.814430296421051,2788
5.935057640075684,-1.7309962511062622,10.486673355102539,0.5355819463729858,0.4778422713279724,-0.7145069241523743,2800
0.4331822097301483,-1.115686297416687,9.09564208984375,0.26538896560668945,-0.41560637950897217,0.09833690524101257,2812
1.4291701316833496,-0.7733154296875,9.70616340637207,-0.303908109664917,0.014197587966918945,0.143901988863945,2824
1.419593334197998,0.05028991401195526,9.921642303466797,-0.3103031814098358,-0.0656079649925232,0.5734394788742065,2836
0.6247183084487915,1.8842483758926392,10.850591659545898,-0.6184670329093933,0.1880643367767334,0.7029402852058411,2848
-0.8596867322921753,1.9752280712127686,10.24485969543457,-1.0005743503570557,0.5314012169837952,0.602217435836792,2860
-1.5994950532913208,0.7422142028808594,8.997480392456055,-0.45445939898490906,0.14742881059646606,0.29338744282722473,2872
