accel_x,accel_y,accel_z,gyro_x,gyro_y,gyro_z,time
2.3317840099334717,-1.601709246635437,9.734893798828125,-0.11538591235876083,-0.629442572593689,-0.07086676359176636,3
2.7794997692108154,-1.6424107551574707,9.20577621459961,-0.07661561667919159,-0.3520551323890686,-0.02863246202468872,16
2.8178069591522217,-1.6735353469848633,9.167469024658203,-0.0026722815819084644,-0.0011240839958190918,0.024127110838890076,29
2.7100679874420166,-1.6831121444702148,9.181833267211914,0.06780704855918884,0.3458101153373718,0.07142419368028641,42
2.3317840099334717,-1.604103446006775,9.663068771362305,0.09845022857189178,0.5715038180351257,0.10553139448165894,55
2.1306710243225098,-1.6232571601867676,9.615184783935547,0.10124808549880981,0.6394517421722412,0.1193874403834343,68
2.03969144821167,-1.613680362701416,9.483503341674805,0.11430475115776062,0.7071332335472107,0.1293797791004181,81
1.7883003950119019,-1.556219458580017,9.471532821655273,0.12869371473789215,0.7537641525268555,0.13377641141414642,94
1.7523874044418335,-1.5035470724105835,9.725317001342773,0.12989279627799988,0.7794777750968933,0.13963858783245087,107
1.4698715209960938,-1.4628455638885498,9.756441116333008,0.12483001500368118,0.7524318695068359,0.13324348628520966,120
1.3812861442565918,-1.4532687664031982,9.608001708984375,0.11417151987552643,0.6774226427078247,0.12245175987482071,133
1.297489047050476,-1.5298832654953003,9.687009811401367,0.10258039832115173,0.6018805503845215,0.11179325729608536,146
1.177778959274292,-1.4532687664031982,9.69179916381836,0.08939050137996674,0.5130153298377991,0.09687136113643646,159
0.8018893003463745,-1.4173557758331299,9.775594711303711,0.05408422648906708,0.36859264969825745,0.07688667625188828,172
0.612747311592102,-1.4029905796051025,9.770807266235352,0.009584993124008179,0.07002145051956177,0.032520681619644165,185
0.6462662220001221,-1.4029905796051025,9.856998443603516,-0.034647777676582336,-0.2417396903038025,-0.0158422589302063,198
1.1514427661895752,-1.3838369846343994,9.964736938476562,-0.07168606668710709,-0.43372583389282227,-0.04182235896587372,211
1.1658079624176025,-1.4700281620025635,9.675039291381836,-0.08927258104085922,-0.5277870893478394,-0.05714394152164459,224
1.278335452079773,-1.4700281620025635,9.660673141479492,-0.09913169592618942,-0.593336820602417,-0.06700307130813599,237
1.4028339385986328,-1.4652397632598877,9.603212356567383,-0.10685911029577255,-0.654889702796936,-0.07566308975219727,250
1.5560628175735474,-1.4652397632598877,9.687009811401367,-0.12004900723695755,-0.6996554136276245,-0.08072587847709656,263
1.783511996269226,-1.5322774648666382,9.591241836547852,-0.115918830037117,-0.6800704002380371,-0.08099234104156494,276
1.8122423887252808,-1.6448049545288086,9.679826736450195,-0.11205512285232544,-0.6415665149688721,-0.07073354721069336,289
2.056450843811035,-1.6208629608154297,9.545751571655273,-0.09846553951501846,-0.5877411365509033,-0.0684686005115509,302
2.082787036895752,-1.635228157043457,9.550540924072266,-0.08407656103372574,-0.513931155204773,-0.05581162869930267,315
2.123488426208496,-1.580161452293396,9.564905166625977,-0.0714196041226387,-0.44052064418792725,-0.04328790307044983,328
2.372485399246216,-1.604103446006775,9.495473861694336,-0.054632462561130524,-0.31155282258987427,-0.026767238974571228,341
2.5807809829711914,-1.5921324491500854,9.27520751953125,-0.014529861509799957,-0.07599997520446777,0.012269511818885803,354
2.4874072074890137,-1.5729788541793823,9.442802429199219,0.031035220250487328,0.1763399839401245,0.04810872673988342,367
2.236016035079956,-1.5993150472640991,9.569694519042969,0.05008728802204132,0.32276108860969543,0.07142419368028641,380
2.08518123626709,-1.6304397583007812,9.483503341674805,0.05941347777843475,0.3909755051136017,0.08048391342163086,393
2.0684218406677246,-1.5969208478927612,9.488290786743164,0.071803979575634,0.45266157388687134,0.09180857241153717,406
1.9774423837661743,-1.6424107551574707,9.423648834228516,0.0881914272904396,0.5230076313018799,0.10060183703899384,419
1.8098481893539429,-1.556219458580017,9.536174774169922,0.10044869780540466,0.5716370940208435,0.10499846190214157,432
1.7547816038131714,-1.613680362701416,9.58405876159668,0.10044869780540466,0.5996156334877014,0.11006125807762146,445
1.5345150232315063,-1.5298832654953003,9.596031188964844,0.10098162293434143,0.6097412109375,0.11525727808475494,458
1.4124107360839844,-1.438903570175171,9.667856216430664,0.09138897061347961,0.5561822652816772,0.10313322395086288,471
1.3357962369918823,-1.4748165607452393,9.768413543701172,0.08046401292085648,0.4841041564941406,0.09447319805622101,484
1.256787657737732,-1.4867876768112183,9.75883674621582,0.07127105444669724,0.41615623235702515,0.08328177034854889,497
1.1801731586456299,-1.4843933582305908,9.720529556274414,0.05768147110939026,0.3367503881454468,0.07249004393815994,510
1.1658079624176025,-1.4652397632598877,9.775594711303711,0.04089433699846268,0.24042421579360962,0.05703522264957428,523
1.0748282670974731,-1.4676339626312256,9.75883674621582,0.024640122428536415,0.138502299785614,0.043978556990623474,536
1.1394717693328857,-1.5011528730392456,9.732500076293945,0.0059877485036849976,0.04017764329910278,0.02945636212825775,549
1.1298948526382446,-1.436509370803833,9.81629753112793,-0.010133231058716774,-0.053217411041259766,0.013335376977920532,562
1.1370775699615479,-1.3838369846343994,9.722923278808594,-0.026120979338884354,-0.14514702558517456,0.002277180552482605,575
1.223268747329712,-1.460451364517212,9.69179916381836,-0.040243491530418396,-0.23307961225509644,-0.011312410235404968,588
1.2543933391571045,-1.4317209720611572,9.768413543701172,-0.05556508153676987,-0.3156830072402954,-0.026900455355644226,601
1.366920828819275,-1.481999158859253,9.742076873779297,-0.06622358411550522,-0.3840305805206299,-0.03329555690288544,614
1.3549498319625854,-1.4724223613739014,9.682222366333008,-0.07501684129238129,-0.45077943801879883,-0.04182235896587372,627
1.4555063247680664,-1.4987586736679077,9.76601791381836,-0.0814119428396225,-0.5044716596603394,-0.0519479364156723,640
1.5800048112869263,-1.5107296705245972,9.63673210144043,-0.08980551362037659,-0.5373798608779907,-0.05914241075515747,653
1.7260512113571167,-1.5610078573226929,9.605607986450195,-0.08647473156452179,-0.5151301622390747,-0.054479315876960754,666
1.8385785818099976,-1.5514310598373413,9.677433013916016,-0.0847427174448967,-0.48315465450286865,-0.04835069179534912,679
1.9056161642074585,-1.5011528730392456,9.596031188964844,-0.07554976642131805,-0.4442511796951294,-0.04195559024810791,692
2.0301146507263184,-1.5705846548080444,9.588848114013672,-0.06062787026166916,-0.36750996112823486,-0.03103064000606537,705
2.106729030609131,-1.5490368604660034,9.502656936645508,-0.048370592296123505,-0.2878376245498657,-0.02223736047744751,718
2.1570072174072266,-1.5394600629806519,9.63673210144043,-0.03824502229690552,-0.21003061532974243,-0.009713634848594666,731
2.121094226837158,-1.604103446006775,9.50984001159668,-0.025987748056650162,-0.14128327369689941,-0.0021194368600845337,744
2.145036220550537,-1.5681904554367065,9.483503341674805,-0.013464012183248997,-0.075600266456604,0.013468608260154724,757
2.171372413635254,-1.601709246635437,9.540964126586914,-0.003071974962949753,-0.006320059299468994,0.01813170313835144,770
2.1402478218078613,-1.6256513595581055,9.497867584228516,0.009984685108065605,0.06682389974594116,0.03238743543624878,783
2.0971522331237793,-1.5466426610946655,9.615184783935547,0.02077641710639,0.1355712115764618,0.04424501955509186,796
2.058845043182373,-1.580161452293396,9.514627456665039,0.03263399749994278,0.2032526731491089,0.051839202642440796,809
2.082787036895752,-1.5298832654953003,9.543357849121094,0.04342573136091232,0.27106738090515137,0.06209801137447357,822
2.015749454498291,-1.5634020566940308,9.63673210144043,0.05435068905353546,0.33355283737182617,0.07235681265592575,835
1.9535003900527954,-1.5993150472640991,9.543357849121094,0.06554211676120758,0.38351455330848694,0.07768606394529343,848
1.8194249868392944,-1.5442484617233276,9.569694519042969,0.07273659855127335,0.41775497794151306,0.08368146419525146,861
1.7715409994125366,-1.537065863609314,9.63912582397461,0.07699999958276749,0.44746553897857666,0.08954364061355591,874
1.6350713968276978,-1.5921324491500854,9.641519546508789,0.07646707445383072,0.46371975541114807,0.0930076539516449,887
1.4962077140808105,-1.5179122686386108,9.660673141479492,0.07326952368021011,0.4336094856262207,0.08754517138004303,900
1.4243817329406738,-1.537065863609314,9.730106353759766,0.05781470239162445,0.36539509892463684,0.0747549757361412,913
1.3597382307052612,-1.414961576461792,9.749259948730469,0.0471561998128891,0.2999785542488098,0.06729402393102646,926
1.3238252401351929,-1.4556629657745361,9.732500076293945,0.038362935185432434,0.23496171832084656,0.05650229752063751,939
1.2352397441864014,-1.4652397632598877,9.746864318847656,0.0249065849930048,0.16581469774246216,0.04557733237743378,952
1.3142484426498413,-1.4867876768112183,9.734893798828125,0.013049004599452019,0.08560949563980103,0.03598468005657196,965
1.2903064489364624,-1.5059412717819214,9.81629753112793,-0.0018728943541646004,0.007269561290740967,0.02452680468559265,978
1.2903064489364624,-1.4628455638885498,9.787567138671875,-0.013863706029951572,-0.07266920804977417,0.012003064155578613,991
1.3070658445358276,-1.436509370803833,9.81869125366211,-0.024921897798776627,-0.13995099067687988,0.0032097846269607544,1004
1.3046716451644897,-1.4652397632598877,9.615184783935547,-0.03478100895881653,-0.20456814765930176,-0.006915777921676636,1017
1.3693150281906128,-1.412567377090454,9.619972229003906,-0.045173048973083496,-0.2637227773666382,-0.018906578421592712,1030
1.4100165367126465,-1.5011528730392456,9.725317001342773,-0.05423276871442795,-0.32674115896224976,-0.02543492615222931,1043
1.484236717224121,-1.5250948667526245,9.715740203857422,-0.06422511488199234,-0.379101037979126,-0.03782542049884796,1056
1.6446481943130493,-1.5059412717819214,9.667856216430664,-0.06848851591348648,-0.40521442890167236,-0.03809189796447754,1069
1.742810606956482,-1.580161452293396,9.51223373413086,-0.06502450257539749,-0.3803001642227173,-0.034494638442993164,1082
1.8242133855819702,-1.5490368604660034,9.629549026489258,-0.05942878872156143,-0.33979785442352295,-0.02796630561351776,1095
1.8026655912399292,-1.580161452293396,9.586454391479492,-0.05369984358549118,-0.29876261949539185,-0.021837666630744934,1108
1.9271639585494995,-1.5298832654953003,9.564905166625977,-0.046372123062610626,-0.25386369228363037,-0.014376729726791382,1121
1.9702597856521606,-1.5873440504074097,9.488290786743164,-0.03371515870094299,-0.19644099473953247,-0.0059831589460372925,1134
2.013355255126953,-1.6232571601867676,9.65109634399414,-0.02305665984749794,-0.13169068098068237,0.003875941038131714,1147
2.020537853240967,-1.534671664237976,9.552934646606445,-0.010666156187653542,-0.05628180503845215,0.0138683021068573,1160
2.0253262519836426,-1.5945266485214233,9.596031188964844,0.002257273532450199,0.026188373565673828,0.02532617747783661,1173
2.0301146507263184,-1.616074562072754,9.567300796508789,0.01598009094595909,0.09986525774002075,0.036917299032211304,1186
1.9439235925674438,-1.604103446006775,9.52420425415039,0.025972435250878334,0.164882093667984,0.043978556990623474,1199
1.917587161064148,-1.5538252592086792,9.567300796508789,0.033699847757816315,0.21204593777656555,0.055303215980529785,1212
1.896039366722107,-1.5753730535507202,9.619972229003906,0.03822971135377884,0.24202299118041992,0.057434916496276855,1225
1.7715409994125366,-1.5227006673812866,9.564905166625977,0.0454242005944252,0.26467230916023254,0.05983307957649231,1238
1.7883003950119019,-1.515518069267273,9.720529556274414,0.04955436289310455,0.30091118812561035,0.06689433008432388,1251
1.7356280088424683,-1.4843933582305908,9.701375961303711,0.05275191366672516,0.32915621995925903,0.07288973778486252,1264
1.6159178018569946,-1.537065863609314,9.734893798828125,0.05568300187587738,0.3316876292228699,0.07249004393815994,1277
1.4171991348266602,-1.5274890661239624,9.739683151245117,0.04728943109512329,0.290252685546875,0.06542879343032837,1290
1.419593334197998,-1.5753730535507202,9.746864318847656,0.03489892929792404,0.21964013576507568,0.05370444059371948,1303
1.4315643310546875,-1.4412977695465088,9.734893798828125,0.02437365986406803,0.15262481570243835,0.044511497020721436,1316
1.3884687423706055,-1.4676339626312256,9.70616340637207,0.013848390430212021,0.08854055404663086,0.03598468005657196,1329
1.340584635734558,-1.537065863609314,9.76362419128418,0.0029234299436211586,0.024456322193145752,0.02505972981452942,1342
1.3501614332199097,-1.4891818761825562,9.670249938964844,-0.009333843365311623,-0.04389125108718872,0.0156002938747406,1355
1.400439739227295,-1.479604959487915,9.718133926391602,-0.0195926483720541,-0.11969983577728271,0.006274119019508362,1368
1.4387469291687012,-1.436509370803833,9.682222366333008,-0.03065084107220173,-0.18471664190292358,-0.0059831589460372925,1381
1.443535327911377,-1.4652397632598877,9.694192886352539,-0.042241960763931274,-0.24107348918914795,-0.013977035880088806,1394
1.5967642068862915,-1.5107296705245972,9.63433837890625,-0.045173048973083496,-0.26412254571914673,-0.018506884574890137,1407
1.6111294031143188,-1.5227006673812866,9.564905166625977,-0.042908117175102234,-0.25932615995407104,-0.017574265599250793,1420
1.7739351987838745,-1.5274890661239624,9.569694519042969,-0.03984379768371582,-0.22948241233825684,-0.012511476874351501,1433
1.742810606956482,-1.5490368604660034,9.615184783935547,-0.03611332178115845,-0.19724041223526,-0.004117906093597412,1446
1.7715409994125366,-1.5442484617233276,9.70376968383789,-0.030251149088144302,-0.16513168811798096,-0.002785593271255493,1459
1.783511996269226,-1.5849498510360718,9.588848114013672,-0.026120979338884354,-0.12849313020706177,0.000944867730140686,1472
1.8409727811813354,-1.5657962560653687,9.598424911499023,-0.015728943049907684,-0.08812397718429565,0.010937213897705078,1485
1.829001784324646,-1.5059412717819214,9.564905166625977,-0.009333843365311623,-0.04842114448547363,0.015866771340370178,1498
1.8625205755233765,-1.5729788541793823,9.605607986450195,-0.001073506660759449,-0.008318543434143066,0.019730478525161743,1511
1.8433669805526733,-1.5442484617233276,9.648702621459961,0.004522205330431461,0.0283200740814209,0.025459423661231995,1524
1.850549578666687,-1.6064976453781128,9.65109634399414,0.00825268030166626,0.05616539716720581,0.031987741589546204,1537
1.7475990056991577,-1.6088919639587402,9.5816650390625,0.016779478639364243,0.08707505464553833,0.035318523645401,1550
1.8433669805526733,-1.5753730535507202,9.663068771362305,0.019710566848516464,0.11945021152496338,0.04011484980583191,1563
1.829001784324646,-1.5442484617233276,9.624761581420898,0.026105666533112526,0.15582239627838135,0.046110257506370544,1576
1.805059790611267,-1.5179122686386108,9.550540924072266,0.03196784108877182,0.18926340341567993,0.047575801610946655,1589
1.740416407585144,-1.5179122686386108,9.713346481323242,0.03330015391111374,0.20924809575080872,0.05130627751350403,1602
1.649436593055725,-1.5250948667526245,9.624761581420898,0.034366004168987274,0.20871517062187195,0.05516998469829559,1615
1.5153614282608032,-1.5250948667526245,9.627155303955078,0.027571210637688637,0.1815359890460968,0.05210566520690918,1628
1.5009962320327759,-1.4963644742965698,9.663068771362305,0.025173047557473183,0.1486278772354126,0.04504440724849701,1641
1.465083122253418,-1.4652397632598877,9.770807266235352,0.017712099477648735,0.10959112644195557,0.03891576826572418,1654
1.4698715209960938,-1.5394600629806519,9.785171508789062,0.012516079470515251,0.0496370792388916,0.0303889662027359,1667
1.4722657203674316,-1.479604959487915,9.687009811401367,-0.0056033688597381115,-0.014846861362457275,0.019996926188468933,1680
1.4363527297973633,-1.5634020566940308,9.727710723876953,-0.017993874847888947,-0.08252829313278198,0.010137826204299927,1693
1.4579005241394043,-1.4628455638885498,9.65109634399414,-0.020125575363636017,-0.13102447986602783,0.000944867730140686,1706
1.5057846307754517,-1.515518069267273,9.720529556274414,-0.02518836036324501,-0.14914393424987793,-0.0037182271480560303,1719
1.649436593055725,-1.5514310598373413,9.660673141479492,-0.02785298600792885,-0.14887750148773193,0.001078099012374878,1732
1.6949266195297241,-1.513123869895935,9.619972229003906,-0.024921897798776627,-0.13981777429580688,-0.0007871240377426147,1745
1.7906945943832397,-1.534671664237976,9.615184783935547,-0.021324655041098595,-0.12422966957092285,0.0053415000438690186,1758
1.7475990056991577,-1.5394600629806519,9.675039291381836,-0.017993874847888947,-0.098782479763031,0.00827258825302124,1771
1.8361843824386597,-1.5298832654953003,9.658279418945312,-0.012797855772078037,-0.06787288188934326,0.012669220566749573,1784
1.829001784324646,-1.5203064680099487,9.667856216430664,-0.003071974962949753,-0.026837706565856934,0.019730478525161743,1797
1.8242133855819702,-1.580161452293396,9.648702621459961,0.003456355072557926,0.020059704780578613,0.026392042636871338,1810
1.7547816038131714,-1.493970274925232,9.5816650390625,0.010117918252944946,0.05789738893508911,0.030655428767204285,1823
1.742810606956482,-1.5418542623519897,9.63433837890625,0.014781011268496513,0.08187901973724365,0.03438590466976166,1836
1.7092918157577515,-1.4891818761825562,9.622365951538086,0.014381317421793938,0.09386980533599854,0.03585146367549896,1849
1.7045034170150757,-1.5011528730392456,9.65109634399414,0.017845330759882927,0.1090582013130188,0.037050530314445496,1862
1.6398597955703735,-1.4652397632598877,9.617578506469727,0.01797856017947197,0.12411332130432129,0.044511497020721436,1875
1.5512744188308716,-1.4628455638885498,9.689403533935547,0.018378254026174545,0.1174517273902893,0.03944869339466095,1888
1.54169762134552,-1.515518069267273,9.701375961303711,0.01318223774433136,0.08827412128448486,0.03718377649784088,1901
1.565639615058899,-1.5514310598373413,9.710952758789062,0.006520673632621765,0.046439528465270996,0.026258796453475952,1914
1.5393034219741821,-1.4843933582305908,9.622365951538086,0.000658499076962471,0.002206742763519287,0.023594170808792114,1927
1.5105730295181274,-1.5227006673812866,9.63912582397461,-0.0029387441463768482,-0.03629708290100098,0.015200614929199219,1940
1.6135236024856567,-1.5298832654953003,9.682222366333008,-0.010932618752121925,-0.05761408805847168,0.0138683021068573,1953
1.5560628175735474,-1.5394600629806519,9.65109634399414,-0.01293108705431223,-0.07133692502975464,0.010137826204299927,1966
1.651830792427063,-1.5083354711532593,9.696586608886719,-0.013197549618780613,-0.08013010025024414,0.010271057486534119,1979
1.6350713968276978,-1.5274890661239624,9.57927131652832,-0.015196017920970917,-0.08612555265426636,0.006807044148445129,1992
1.7475990056991577,-1.5418542623519897,9.672645568847656,-0.01293108705431223,-0.08226186037063599,0.010537520051002502,2005
1.7092918157577515,-1.5250948667526245,9.655885696411133,-0.01053292490541935,-0.056415021419525146,0.012802451848983765,2018
1.7284454107284546,-1.493970274925232,9.562511444091797,-0.0064027560874819756,-0.024039804935455322,0.01693260669708252,2031
1.6614075899124146,-1.5634020566940308,9.70376968383789,0.00199081189930439,0.005670726299285889,0.023594170808792114,2044
1.7499932050704956,-1.5538252592086792,9.682222366333008,0.003189893439412117,0.028852999210357666,0.027724355459213257,2057
1.7452048063278198,-1.5945266485214233,9.646308898925781,0.0055880555883049965,0.04164320230484009,0.028656959533691406,2070
1.6614075899124146,-1.5394600629806519,9.69179916381836,0.007719755172729492,0.0497702956199646,0.029856055974960327,2083
1.6326771974563599,-1.5083354711532593,9.600818634033203,0.009318528696894646,0.05949622392654419,0.029989272356033325,2096
1.6326771974563599,-1.5227006673812866,9.552934646606445,0.011316997930407524,0.06669068336486816,0.032520681619644165,2109
1.5895816087722778,-1.5298832654953003,9.63673210144043,0.008785605430603027,0.05803060531616211,0.03292036056518555,2122
1.6350713968276978,-1.5179122686386108,9.675039291381836,0.00372281763702631,0.04017764329910278,0.027457892894744873,2135
1.6254945993423462,-1.5011528730392456,9.658279418945312,-7.657334208488464e-06,0.009934186935424805,0.028390511870384216,2148
1.5943700075149536,-1.5418542623519897,9.770807266235352,-0.00027411896735429764,-0.010050535202026367,0.0187978595495224,2161
1.6183120012283325,-1.491576075553894,9.586454391479492,-0.007202143780887127,-0.03016841411590576,0.018664628267288208,2174
1.6829553842544556,-1.5011528730392456,9.701375961303711,-0.006802449934184551,-0.036830008029937744,0.017065852880477905,2187
1.6350713968276978,-1.479604959487915,9.667856216430664,-0.005070443730801344,-0.04162633419036865,0.014934137463569641,2200
1.630282998085022,-1.4987586736679077,9.629549026489258,-0.009999999776482582,-0.04335832595825195,0.016532927751541138,2213
1.673378586769104,-1.5634020566940308,9.63912582397461,-0.008267993107438087,-0.04056048393249512,0.017065852880477905,2226
1.6374655961990356,-1.5035470724105835,9.663068771362305,-0.007335375063121319,-0.03376567363739014,0.014800921082496643,2239
1.6901382207870483,-1.558613657951355,9.598424911499023,-0.003471669275313616,-0.02284073829650879,0.01679939031600952,2252
1.6685901880264282,-1.5227006673812866,9.627155303955078,-0.0005405815318226814,0.002206742763519287,0.02332770824432373,2265
1.627888798713684,-1.5322774648666382,9.593635559082031,-0.00040735118091106415,0.015663087368011475,0.026125580072402954,2278
1.6159178018569946,-1.5059412717819214,9.672645568847656,0.002124043181538582,0.03471517562866211,0.028523743152618408,2291
1.6566191911697388,-1.5203064680099487,9.612789154052734,0.005454824306070805,0.03791266679763794,0.028523743152618408,2304
1.6207062005996704,-1.5610078573226929,9.643915176391602,0.004522205330431461,0.035647809505462646,0.02599233388900757,2317
1.6159178018569946,-1.5227006673812866,9.670249938964844,0.0033231237903237343,0.028719782829284668,0.026125580072402954,2330
1.544091820716858,-1.5538252592086792,9.663068771362305,0.0043889740481972694,0.022990822792053223,0.027724355459213257,2343
1.5776106119155884,-1.5227006673812866,9.687009811401367,0.003456355072557926,0.012998461723327637,0.025592640042304993,2356
1.5536686182022095,-1.558613657951355,9.672645568847656,0.0015911189839243889,0.004871368408203125,0.022528335452079773,2369
1.6135236024856567,-1.5059412717819214,9.624761581420898,0.0007917303591966629,-0.010316967964172363,0.019064322113990784,2382
1.5895816087722778,-1.577767252922058,9.605607986450195,-0.0056033688597381115,-0.024173080921173096,0.019330784678459167,2395
1.5991584062576294,-1.479604959487915,9.65109634399414,-0.006136293523013592,-0.028169989585876465,0.01826491951942444,2408
1.6566191911697388,-1.534671664237976,9.663068771362305,-0.008667686954140663,-0.0329662561416626,0.0187978595495224,2421
1.6925324201583862,-1.5179122686386108,9.528993606567383,-0.006802449934184551,-0.02950233221054077,0.015733540058135986,2434
1.6326771974563599,-1.5729788541793823,9.75883674621582,-0.003338437993079424,-0.019243478775024414,0.01946401596069336,2447
1.721262812614441,-1.5203064680099487,9.727710723876953,-0.0013399692252278328,-0.005387425422668457,0.02172894775867462,2460
1.649436593055725,-1.5657962560653687,9.684616088867188,0.00012557487934827805,0.001140892505645752,0.021595701575279236,2473
1.7068976163864136,-1.5322774648666382,9.682222366333008,0.002124043181538582,0.007269561290740967,0.022128641605377197,2486
1.6542249917984009,-1.5083354711532593,9.660673141479492,0.00199081189930439,0.014464020729064941,0.02306126058101654,2499
1.6446481943130493,-1.513123869895935,9.734893798828125,0.005321592092514038,0.022990822792053223,0.0237274169921875,2512
1.649436593055725,-1.5011528730392456,9.660673141479492,0.00372281763702631,0.026321589946746826,0.02719143033027649,2525
1.6326771974563599,-1.5466426610946655,9.63673210144043,0.004122511483728886,0.026188373565673828,0.026125580072402954,2538
1.6446481943130493,-1.613680362701416,9.586454391479492,0.004655436612665653,0.023390531539916992,0.026392042636871338,2551
1.6039468050003052,-1.5322774648666382,9.689403533935547,0.0014578867703676224,0.013931095600128174,0.02452680468559265,2564
1.608735203742981,-1.5011528730392456,9.57687759399414,-0.0018728943541646004,0.0006079673767089844,0.021196022629737854,2577
1.6542249917984009,-1.4772107601165771,9.631942749023438,-0.0009402753785252571,-0.008451759815216064,0.021862179040908813,2590
1.6542249917984009,-1.5107296705245972,9.70616340637207,-0.004537519067525864,-0.01844412088394165,0.022794798016548157,2603
1.6590133905410767,-1.5250948667526245,9.624761581420898,-0.004004593938589096,-0.025105714797973633,0.018398165702819824,2616
1.6446481943130493,-1.558613657951355,9.663068771362305,-0.0065359873697161674,-0.02843642234802246,0.016532927751541138,2629
1.697320818901062,-1.4963644742965698,9.713346481323242,-0.0029387441463768482,-0.020975470542907715,0.018398165702819824,2642
1.6709843873977661,-1.5394600629806519,9.665462493896484,-0.0008070440962910652,-0.007918834686279297,0.01946401596069336,2655
1.6877440214157104,-1.5250948667526245,9.677433013916016,0.0023905057460069656,0.001140892505645752,0.019597232341766357,2668
1.627888798713684,-1.5083354711532593,9.689403533935547,-0.0017396630719304085,0.0084686279296875,0.02332770824432373,2681
1.673378586769104,-1.5610078573226929,9.751653671264648,0.0029234299436211586,0.008735120296478271,0.02306126058101654,2694
1.6661959886550903,-1.5059412717819214,9.65109634399414,-0.0016064317896962166,0.011932611465454102,0.024926483631134033,2707
1.6135236024856567,-1.5179122686386108,9.665462493896484,0.0014578867703676224,0.016196012496948242,0.023594170808792114,2720
1.6566191911697388,-1.5179122686386108,9.622365951538086,0.001857580617070198,0.02352374792098999,0.02505972981452942,2733
1.6015526056289673,-1.5250948667526245,9.655885696411133,0.0023905057460069656,0.020459413528442383,0.02452680468559265,2746
1.6111294031143188,-1.5921324491500854,9.617578506469727,-0.001206737942993641,0.009934186935424805,0.0237274169921875,2759
1.630282998085022,-1.5011528730392456,9.63433837890625,-0.002139356918632984,-0.0033889412879943848,0.02013017237186432,2772
1.649436593055725,-1.5298832654953003,9.69179916381836,-0.00547013757750392,-0.009117960929870605,0.02079632878303528,2785
1.6685901880264282,-1.4963644742965698,9.643915176391602,-0.0008070440962910652,-0.0032557249069213867,0.021329239010810852,2798
1.6039468050003052,-1.5274890661239624,9.677433013916016,-0.0018728943541646004,0.001540541648864746,0.02332770824432373,2811
1.6326771974563599,-1.5322774648666382,9.655885696411133,-0.0025390502996742725,-0.003522157669067383,0.02199539542198181,2824
1.6614075899124146,-1.534671664237976,9.698980331420898,-0.002139356918632984,-0.01204901933670044,0.018398165702819824,2837
1.6685901880264282,-1.5729788541793823,9.70616340637207,-0.003071974962949753,-0.017911136150360107,0.01693260669708252,2850
1.6374655961990356,-1.5274890661239624,9.624761581420898,-0.00040735118091106415,-0.012448668479919434,0.01946401596069336,2863
1.6661959886550903,-1.5681904554367065,9.679826736450195,-0.0022725877352058887,-0.002323150634765625,0.022128641605377197,2876
