accel_x,accel_y,accel_z,gyro_x,gyro_y,gyro_z,time
0.612747311592102,-0.04787234961986542,9.892911911010742,0.00012557487934827805,-0.001656949520111084,0.02079632878303528,3
0.636689305305481,-0.10533319413661957,9.912065505981445,0.002257273532450199,-0.006719768047332764,0.023460954427719116,16
0.6079589128494263,-0.040689751505851746,9.895305633544922,0.003456355072557926,-0.001790165901184082,0.01946401596069336,29
0.6175357103347778,0.009588494896888733,9.83305549621582,-0.0056033688597381115,-0.0012573003768920898,0.020263388752937317,42
0.612747311592102,-0.12927521765232086,9.916852951049805,-0.00840122438967228,0.00380551815032959,0.019996926188468933,55
0.6055647134780884,-0.057449162006378174,9.890518188476562,-0.009333843365311623,0.004871368408203125,0.020929545164108276,68
0.56965172290802,-0.09096799790859222,9.962343215942383,-0.01293108705431223,0.0031393766403198242,0.025592640042304993,81
0.5888053178787231,-0.059843361377716064,10.005439758300781,-0.014130167663097382,0.009401202201843262,0.020663082599639893,94
0.6606314182281494,-0.059843361377716064,9.88812255859375,-0.025454822927713394,0.014197587966918945,0.02013017237186432,107
0.6223241090774536,-0.15321724116802216,9.936006546020508,-0.033848389983177185,0.01459723711013794,0.02079632878303528,120
0.6342951059341431,-0.10293899476528168,9.967132568359375,-0.032382845878601074,0.011932611465454102,0.024793267250061035,133
0.6390835046768188,-0.08139117062091827,9.828268051147461,-0.029052067548036575,0.011666178703308105,0.02266155183315277,146
0.6271125078201294,-0.05026654899120331,9.904882431030273,-0.04810413718223572,0.0264548659324646,0.02306126058101654,159
0.6079589128494263,0.004800081253051758,10.091630935668945,-0.07195252180099487,0.040710628032684326,0.024793267250061035,172
0.6175357103347778,-0.05266076326370239,9.959949493408203,-0.09233690798282623,0.05043649673461914,0.023460954427719116,185
0.6151415109634399,-0.043083950877189636,10.034170150756836,-0.13217304646968842,0.07042115926742554,0.029189899563789368,198
0.9431471824645996,-0.2633504867553711,10.206552505493164,-0.17933692038059235,0.07215315103530884,0.08994334191083908,211
0.5935937166213989,0.1101449579000473,9.373369216918945,-0.24342112243175507,0.03991121053695679,0.25528329610824585,224
0.7276690006256104,0.05986672639846802,10.809890747070312,-0.33894792199134827,0.06029558181762695,0.5274747610092163,237
-0.33775076270103455,-0.023930341005325317,9.828268051147461,-0.37571975588798523,-0.009784042835235596,0.4092985987663269,250
0.01659110188484192,-0.08378536999225616,9.981496810913086,-0.4172878861427307,0.05496633052825928,0.21531392633914948,263
0.1171475350856781,-0.24898530542850494,10.091630935668945,-0.4769755005836487,0.07348549365997314,0.05197243392467499,276
0.2536170780658722,-0.4165794253349304,10.230493545532227,-0.5298682451248169,0.059895873069763184,-0.053147003054618835,289
0.6462662220001221,-0.5626257061958313,10.050928115844727,-0.600081205368042,0.057231247425079346,-0.007581934332847595,302
0.5840169191360474,-0.5219242572784424,10.007833480834961,-0.6405834555625916,0.04670596122741699,0.02892342209815979,315
0.6342951059341431,-0.7541618347167969,9.742076873779297,-0.6277932524681091,0.055898964405059814,0.0864793211221695,328
0.5217676162719727,-0.9480921626091003,9.962343215942383,-0.6445804238319397,0.035114824771881104,0.07595404982566833,341
0.5002198219299316,-0.8499298691749573,10.49625015258789,-0.7283828258514404,0.03298318386077881,0.10433231294155121,354
0.44994160532951355,-0.6655763983726501,10.077264785766602,-0.7652879357337952,0.05323433876037598,0.07901837676763535,367
0.33980831503868103,-0.6990951895713806,10.558500289916992,-0.8283063173294067,0.05883002281188965,0.056102603673934937,380
0.5672575235366821,-1.070196509361267,9.81629753112793,-0.9049142599105835,0.07241958379745483,-0.00864778459072113,393
0.4379706084728241,-1.436509370803833,9.775594711303711,-0.9226340055465698,0.10093110799789429,0.018664628267288208,406
0.2727706730365753,-1.759726643562317,9.665462493896484,-0.9210352301597595,0.11025726795196533,-0.019039824604988098,419
0.7300631999969482,-1.4245383739471436,10.220916748046875,-1.0242893695831299,0.046439528465270996,-0.05101531744003296,432
0.9239935874938965,-1.5634020566940308,10.393299102783203,-1.1388683319091797,0.09493571519851685,0.0814165398478508,445
0.9000515937805176,-1.6543817520141602,10.601594924926758,-1.35896635055542,0.034981608390808105,0.28592649102211,458
0.3422025144100189,-2.116462469100952,10.347810745239258,-1.5462894439697266,0.052568137645721436,0.30444562435150146,471
0.16742578148841858,-1.69987154006958,10.194580078125,-1.86524498462677,0.029918789863586426,0.26833996176719666,484
0.28474166989326477,-2.360671043395996,9.952766418457031,-2.0243232250213623,0.0645589828491211,0.24982082843780518,497
0.5624691247940063,-2.669523239135742,9.727710723876953,-2.2578775882720947,-0.06813937425613403,0.33921897411346436,510
1.4315643310546875,-2.9687983989715576,9.837844848632812,-2.3784515857696533,-0.01817762851715088,0.4553966224193573,523
0.40445175766944885,-2.8873953819274902,9.687009811401367,-2.4569249153137207,-0.05628180503845215,0.6172726154327393,536
0.6654198169708252,-3.754096508026123,8.686233520507812,-2.4054975509643555,-0.11996626853942871,0.6348590850830078,549
0.5217676162719727,-3.842681884765625,8.295978546142578,-2.189929485321045,-0.09398621320724487,0.6648361086845398,562
0.9670891761779785,-4.580096244812012,8.025434494018555,-1.9037487506866455,0.052701354026794434,0.7018744349479675,575
0.31826052069664,-4.314339637756348,7.613631248474121,-1.7537304162979126,0.050036728382110596,0.7664915323257446,588
-0.2563478946685791,-4.2305426597595215,7.90811824798584,-1.385212779045105,0.21191272139549255,0.5910260081291199,601
-0.9458780288696289,-4.29997444152832,8.774819374084473,-1.305807113647461,0.1947258710861206,0.252618670463562,614
0.12433019280433655,-4.776420593261719,8.291191101074219,-1.1628499031066895,0.3507396876811981,0.03478561341762543,627
0.3541735112667084,-4.723748207092285,8.525821685791016,-1.1166186332702637,0.4268147051334381,0.054637059569358826,640
1.0652514696121216,-3.289621353149414,9.057334899902344,-1.0013736486434937,0.5897564888000488,0.1754777878522873,653
-0.15100303292274475,-5.171463966369629,7.9583964347839355,-0.998708963394165,0.359133243560791,0.18720214068889618,666
-0.1653682440519333,-4.910495758056641,8.073318481445312,-0.935823917388916,0.16155129671096802,0.143901988863945,679
0.030956298112869263,-5.276808738708496,8.003886222839355,-0.8629463911056519,0.05643182992935181,0.10046860575675964,692
-0.17733924090862274,-5.55453634262085,7.8722052574157715,-0.8329693675041199,-0.011116385459899902,0.16268759965896606,705
-0.4598550498485565,-5.487498760223389,8.044588088989258,-0.9388881921768188,-0.10357886552810669,0.13684073090553284,718
-0.11269581317901611,-5.801138877868652,8.080500602722168,-0.8942557573318481,-0.07626646757125854,0.10220061242580414,731
-0.42394202947616577,-5.676640510559082,7.960790634155273,-0.927563488483429,-0.020975470542907715,0.011203676462173462,744
-0.7830722332000732,-5.72452449798584,7.8937530517578125,-0.9169050455093384,-0.022973954677581787,-0.08165848255157471,757
-0.40718260407447815,-6.050136089324951,8.070923805236816,-0.9604716300964355,0.013664603233337402,-0.2398039698600769,770
-0.2539536952972412,-5.889724254608154,7.788408279418945,-0.9828545451164246,-0.058946430683135986,-0.2328759729862213,783
0.03335049748420715,-5.825080871582031,7.7620720863342285,-0.8518881797790527,0.09986525774002075,-0.22301682829856873,796
-0.2755015194416046,-6.047741889953613,7.618419647216797,-0.8685420751571655,0.09227108955383301,-0.2792404294013977,809
-0.5029506683349609,-6.509822845458984,7.7836198806762695,-0.9334257245063782,0.17021134495735168,-0.409540593624115,822
0.38050976395606995,-6.74206018447876,7.058176517486572,-1.0336155891418457,0.1599525511264801,-0.37223583459854126,835
0.5504981279373169,-6.756425380706787,7.16112756729126,-0.9903154373168945,0.14609649777412415,-0.22115159034729004,848
0.2033388316631317,-6.299132823944092,7.144367694854736,-1.026154637336731,0.04937058687210083,-0.16666001081466675,861
0.06686931848526001,-6.653474807739258,6.8570637702941895,-0.9307610988616943,0.1880643367767334,-0.18437978625297546,874
-0.05284076929092407,-6.634321212768555,6.797208786010742,-0.8825314044952393,0.21870750188827515,-0.26525112986564636,887
0.30868372321128845,-6.631927013397217,7.278443336486816,-0.8115191459655762,0.18686524033546448,-0.1773185133934021,900
0.5504981279373169,-7.268784523010254,6.473991394042969,-0.752098023891449,0.08840733766555786,-0.06220674514770508,913
0.5026140213012695,-6.706147193908691,6.292032241821289,-0.6341883540153503,-0.059079647064208984,0.0880781039595604,926
0.08602294325828552,-6.8330397605896,6.933678150177002,-0.5398606061935425,-0.19364315271377563,0.1685497760772705,939
-0.3904232084751129,-6.6175618171691895,7.2975969314575195,-0.6356539130210876,-0.1466125249862671,0.032520681619644165,952
0.02377369999885559,-6.768396377563477,7.209011554718018,-0.7449035048484802,-0.0328330397605896,-0.0552787184715271,965
0.06686931848526001,-6.854587554931641,7.520257472991943,-0.8445605039596558,-0.029369056224822998,-0.034627869725227356,978
0.15545478463172913,-7.201746940612793,6.756507396697998,-0.9227672219276428,-0.024705946445465088,-0.044753432273864746,991
0.01898530125617981,-7.347793102264404,6.737353801727295,-0.9993751645088196,0.009934186935424805,-0.02543492615222931,1004
0.6582372188568115,-7.781143665313721,5.99754524230957,-0.9378223419189453,0.1534242033958435,0.046243488788604736,1017
0.8090718984603882,-7.898459434509277,5.640809059143066,-0.7783445119857788,0.15715470910072327,0.2759341597557068,1030
0.5026140213012695,-7.896065711975098,5.329563140869141,-0.5597121119499207,0.08694183826446533,0.4779127240180969,1043
0.028562098741531372,-7.745230674743652,6.497933387756348,-0.5359969139099121,0.0084686279296875,0.5715742111206055,1056
-0.6896983981132507,-7.139497756958008,6.718200206756592,-0.7349111437797546,0.1270444393157959,0.4568621814250946,1069
0.03335049748420715,-7.541723728179932,6.643979549407959,-0.936090350151062,0.23456203937530518,0.49096935987472534,1082
-0.4837970733642578,-7.671010494232178,5.789249897003174,-0.9239662885665894,0.2749311029911041,0.3485451638698578,1095
-0.5675941109657288,-7.93916130065918,5.329563140869141,-0.9135742783546448,0.22496938705444336,0.3140382766723633,1108
-0.31620293855667114,-8.439549446105957,4.81002140045166,-0.646312415599823,0.2437550127506256,0.3552067279815674,1121
-0.27071312069892883,-7.752413272857666,5.406177520751953,-0.5149464011192322,0.03777945041656494,0.2097182273864746,1134
-1.0129156112670898,-8.281532287597656,5.880229473114014,-0.5053537487983704,0.0120658278465271,-0.0021194368600845337,1147
-1.3121908903121948,-6.845010757446289,7.134790897369385,-0.6981393694877625,-0.006320059299468994,-0.17571976780891418,1160
-0.6394201517105103,-6.871346950531006,6.514692783355713,-0.9639356732368469,0.25641193985939026,-0.2511286437511444,1173
-0.7591302394866943,-7.8050856590271,5.415754318237305,-0.9916477799415588,0.38498008251190186,-0.3838269114494324,1186
-0.9530606269836426,-8.192946434020996,4.616090774536133,-0.8574838638305664,0.32209494709968567,-0.6265742778778076,1199
-0.8501099348068237,-8.46109676361084,4.0486650466918945,-0.5590459108352661,0.4008346199989319,-0.7571408748626709,1212
0.5121908187866211,-8.990215301513672,4.039088249206543,-0.25701072812080383,0.37538743019104004,-0.7923139333724976,1225
1.5009962320327759,-8.892053604125977,4.350334644317627,-0.10965696722269058,0.2963813245296478,-0.4605681896209717,1238
0.42599955201148987,-8.274349212646484,4.9345197677612305,-0.08554211258888245,0.06296020746231079,-0.08365696668624878,1251
0.47148939967155457,-8.94472599029541,4.939308166503906,-0.03704594075679779,-0.10517764091491699,-0.10004439949989319,1264
-1.5444283485412598,-7.766778469085693,5.882623672485352,-0.09486830234527588,-0.21615928411483765,-0.23367533087730408,1277
0.17700257897377014,-8.164216041564941,6.112466812133789,-0.12377947568893433,-0.10158038139343262,-0.2035650610923767,1290
0.47627779841423035,-7.93916130065918,6.143591403961182,-0.3069724142551422,-0.19737368822097778,-0.2513951063156128,1303
0.9287819862365723,-7.970285415649414,6.45004940032959,-0.5490536093711853,-0.3159494400024414,0.02505972981452942,1316
0.856955885887146,-8.101966857910156,5.114084720611572,-0.49909189343452454,-0.8861790895462036,1.3086094856262207,1329
1.5345150232315063,-9.18175220489502,5.135632514953613,-0.3366830050945282,-0.5609617233276367,1.1665849685668945,1342
0.21530982851982117,-9.311038970947266,3.440537929534912,-0.3101699650287628,-0.8010443449020386,0.9523491859436035,1355
-0.88841712474823,-8.738824844360352,3.3639235496520996,-0.04330781102180481,-0.8094379901885986,0.8516263365745544,1368
-1.1062895059585571,-8.147456169128418,3.689534902572632,0.11057426780462265,-0.570554256439209,0.7445083856582642,1381
-1.3648632764816284,-8.681364059448242,4.383853435516357,0.16786369681358337,-0.43559110164642334,0.6376569271087646,1394
-1.474996566772461,-8.106755256652832,4.771714210510254,0.24607042968273163,-0.2943660020828247,0.26221132278442383,1407
-0.6777274012565613,-8.015775680541992,5.255342960357666,0.2665880620479584,-0.09651762247085571,0.10459877550601959,1420
0.6558430194854736,-8.329416275024414,5.013528347015381,0.0915222093462944,-0.01804441213607788,0.0814165398478508,1433
-0.1653682440519333,-9.09316635131836,4.733407020568848,-0.16454823315143585,-0.08066308498382568,0.006407350301742554,1446
0.09559974074363708,-9.495391845703125,4.244989395141602,-0.21051301062107086,-0.29170137643814087,-0.34798771142959595,1459
0.01180267333984375,-8.791497230529785,5.2457661628723145,-0.3583996891975403,-0.533382773399353,-0.1889096200466156,1472
0.2488286793231964,-7.558483123779297,6.40455961227417,-0.42181774973869324,-0.4421194791793823,0.019996926188468933,1485
-0.22761748731136322,-7.659039497375488,5.937690258026123,-0.34227868914604187,-0.30715620517730713,0.17747625708580017,1498
-1.6234370470046997,-8.161821365356445,5.734183311462402,-0.3845130205154419,-0.0686722993850708,0.05290505290031433,1511
-0.3664811849594116,-8.848958015441895,5.035076141357422,-0.432609498500824,0.15875345468521118,-0.04901684820652008,1524
0.6726024150848389,-9.55764102935791,4.364699840545654,-0.5899555683135986,0.24855130910873413,-0.23793873190879822,1537
0.9982137680053711,-9.866493225097656,4.165981292724609,-0.7678192257881165,-0.03629708290100098,-0.11843031644821167,1550
-0.5029506683349609,-9.835369110107422,4.8243865966796875,-0.9390214085578918,-0.2533307671546936,-0.30988362431526184,1563
-2.53802227973938,-8.803467750549316,5.073383331298828,-0.8905252814292908,-0.34939050674438477,-0.7737947702407837,1576
-1.0344634056091309,-8.20970630645752,4.000781059265137,-0.6517748832702637,-0.05841344594955444,-0.8333491683006287,1589
1.4674773216247559,-8.793890953063965,3.835581064224243,-0.5473215579986572,0.058430373668670654,-0.43791884183883667,1602
1.1825673580169678,-8.609537124633789,3.4285669326782227,-0.7567610740661621,0.08294486999511719,-0.06460490822792053,1615
1.6997150182724,-8.666998863220215,3.727842092514038,-0.8460260629653931,0.15968605875968933,0.1243169978260994,1628
0.05729252099990845,-9.536093711853027,3.416595935821533,-1.0321500301361084,0.16075193881988525,0.22450688481330872,1641
0.14108958840370178,-9.164992332458496,2.9042367935180664,-0.9335589408874512,0.1752741038799286,0.2563491463661194,1654
-0.007350921630859375,-8.836986541748047,3.3639235496520996,-1.1537901163101196,0.2915849983692169,0.3512097895145416,1667
-0.3688753843307495,-8.94472599029541,3.181964159011841,-1.0200259685516357,0.19672435522079468,0.4240872859954834,1680
-0.5053448677062988,-8.875293731689453,3.244213342666626,-0.9330260753631592,0.09613478183746338,0.1357748806476593,1693
-0.36408698558807373,-8.037322998046875,4.331181049346924,-0.8673430681228638,0.010999977588653564,0.06196478009223938,1706
-0.29226094484329224,-9.076406478881836,3.3495583534240723,-0.8163154721260071,-0.05175185203552246,-0.17172282934188843,1719
-0.11269581317901611,-9.337374687194824,2.739036798477173,-0.8352342844009399,-0.40454816818237305,-0.23514088988304138,1732
-0.04326394200325012,-8.00619888305664,3.8571290969848633,-1.1218147277832031,-0.4970107078552246,-0.12029555439949036,1745
-0.22761748731136322,-8.013381004333496,3.3375871181488037,-0.6818851232528687,-0.33979785442352295,-0.12535834312438965,1758
-0.03129294514656067,-8.291109085083008,2.913813591003418,-0.6020796298980713,-0.029369056224822998,-0.12429249286651611,1771
1.2927006483078003,-9.406806945800781,2.449338436126709,-0.3248254060745239,0.16035223007202148,-0.10857123136520386,1784
0.3493851125240326,-9.267943382263184,1.7358663082122803,-0.4244823753833771,0.22150534391403198,0.018531396985054016,1797
0.3924807608127594,-9.64383316040039,1.9944400787353516,-0.6138039827346802,0.21964013576507568,0.05903369188308716,1810
0.5002198219299316,-9.361316680908203,2.1021790504455566,-0.5722358226776123,0.2145773470401764,-0.060607969760894775,1823
-0.0935421884059906,-9.186540603637695,1.7789618968963623,-0.821245014667511,0.20391884446144104,-0.15533536672592163,1836
-0.009745121002197266,-9.085983276367188,1.98486328125,-0.5058866739273071,0.10439509153366089,-0.09564778208732605,1849
-0.10551318526268005,-9.06922435760498,2.339205265045166,-0.5453230738639832,0.1403675377368927,-0.009447157382965088,1862
-0.6944868564605713,-9.229636192321777,2.1692166328430176,-0.27513015270233154,0.04550689458847046,0.07582082599401474,1875
-0.38324058055877686,-9.5001802444458,2.011199474334717,-0.33948084712028503,0.06535834074020386,0.09567227959632874,1888
0.004620075225830078,-9.246395111083984,2.4421558380126953,-0.2888529896736145,0.145163893699646,0.12831392884254456,1901
-1.187692403793335,-9.603131294250488,2.253013849258423,-0.20225268602371216,0.23562785983085632,-0.05820980668067932,1914
-0.4478840231895447,-9.481026649475098,1.501234531402588,-0.13044103980064392,0.2650719881057739,-0.02277030050754547,1927
-0.20367546379566193,-8.963879585266113,2.4780688285827637,-0.13936753571033478,0.3969709277153015,0.1243169978260994,1940
0.3278373181819916,-8.5496826171875,3.2705495357513428,-0.006003062706440687,0.5818958878517151,0.15762481093406677,1953
1.486630916595459,-9.0045804977417,3.313645124435425,0.2382097989320755,0.72272127866745,0.2785987854003906,1966
1.278335452079773,-10.302238464355469,1.7885386943817139,0.4030168354511261,0.5753675699234009,0.2463568150997162,1979
0.8617442846298218,-10.469832420349121,1.8962777853012085,0.20730014145374298,0.3067733347415924,0.16761714220046997,1992
0.18897363543510437,-10.728405952453613,1.0223941802978516,0.12416385859251022,0.08161258697509766,-0.000254213809967041,2005
-1.5276689529418945,-9.576794624328613,1.9465560913085938,-0.07928024232387543,0.12078255414962769,-0.08765390515327454,2018
-1.3145850896835327,-8.497010231018066,2.2003414630889893,0.05221898853778839,0.47091424465179443,-0.1112358570098877,2031
-0.562805712223053,-8.935149192810059,3.289703130722046,0.41887137293815613,0.4833047389984131,-0.16945788264274597,2044
0.7731589078903198,-9.665380477905273,2.894659996032715,0.4969448447227478,0.4781087338924408,-0.09604746103286743,2057
1.8601263761520386,-10.998950958251953,1.9537386894226074,0.32800766825675964,0.217774897813797,0.015200614929199219,2070
1.275941252708435,-10.318997383117676,1.9800748825073242,0.07286983728408813,-0.2185574173927307,0.13057886064052582,2083
-0.12945520877838135,-9.552852630615234,2.597778797149658,-0.11085604876279831,-0.2629234194755554,0.13137824833393097,2096
-1.1278373003005981,-8.920783996582031,2.554683208465576,-0.08194486796855927,-0.10877490043640137,0.12511637806892395,2109
-1.0200982093811035,-8.951908111572266,2.935361385345459,0.020643183961510658,0.10079789161682129,0.13830627501010895,2122
-0.49576807022094727,-9.10513687133789,2.317657470703125,0.1528085619211197,0.2753308117389679,-0.017973974347114563,2135
0.014196902513504028,-9.636650085449219,2.3272342681884766,0.061012253165245056,0.2641393542289734,-0.053546711802482605,2148
-0.016927748918533325,-10.144221305847168,1.3264577388763428,-0.02718682959675789,0.20964780449867249,-0.06007504463195801,2161
-0.26831889152526855,-9.619890213012695,2.0351414680480957,-0.051301680505275726,0.2257687747478485,-0.1738545298576355,2174
-0.16776244342327118,-9.255971908569336,2.3535704612731934,-0.11898314952850342,0.22550228238105774,-0.13841500878334045,2187
0.2703764736652374,-9.801850318908691,2.578625202178955,-0.08114548027515411,0.20591729879379272,-0.08685451745986938,2200
0.4690952003002167,-9.610313415527344,2.118938446044922,-0.10845788568258286,0.10652679204940796,0.0005451887845993042,2213
0.7851299047470093,-9.198511123657227,2.8826889991760254,-0.16321592032909393,-0.03922814130783081,0.14829862117767334,2226
-0.2850783169269562,-9.200905799865723,2.7893149852752686,0.006653904914855957,-0.06654053926467896,0.10593108832836151,2239
-0.4909796714782715,-9.107531547546387,2.5642600059509277,0.08739203214645386,-0.0771990418434143,0.1919984668493271,2252
0.18657943606376648,-9.844945907592773,2.205129861831665,0.17758958041667938,0.029918789863586426,0.0731562003493309,2265
0.14827218651771545,-10.06521224975586,1.6017909049987793,0.10098162293434143,0.017661571502685547,0.021862179040908813,2278
0.2488286793231964,-9.689322471618652,2.049506664276123,-0.011332312598824501,0.03644716739654541,-0.055012255907058716,2291
0.279953271150589,-9.1841459274292,2.296109437942505,0.0035895872861146927,0.001940310001373291,-0.018640130758285522,2304
-0.009745121002197266,-9.394835472106934,2.363147258758545,0.012782542034983635,-0.018977046012878418,-0.0034517496824264526,2317
-0.06481176614761353,-9.382864952087402,1.7789618968963623,0.0002588052302598953,0.05949622392654419,-0.03609342873096466,2330
0.028562098741531372,-9.047676086425781,2.0351414680480957,0.02210872806608677,0.07641655206680298,-0.011179164052009583,2343
0.18179097771644592,-9.095560073852539,2.2123124599456787,0.06407656520605087,0.16608119010925293,0.0012113451957702637,2356
-0.6418143510818481,-9.200905799865723,2.423002243041992,0.06660795956850052,0.1830015480518341,0.04784226417541504,2369
-0.19409866631031036,-9.212876319885254,2.2601964473724365,0.12922663986682892,0.24002450704574585,0.04171362519264221,2382
-0.24916529655456543,-9.473844528198242,2.0447182655334473,0.13508881628513336,0.1716768741607666,0.05477029085159302,2395
0.2823474705219269,-9.277520179748535,2.779738187789917,0.46283766627311707,-0.17392492294311523,-0.15640121698379517,2408
0.014196902513504028,-9.12668514251709,3.469268321990967,0.15187594294548035,-0.15740430355072021,-0.0586095005273819,2421
-0.062417566776275635,-9.083589553833008,3.483633518218994,-0.04823736846446991,-0.06920516490936279,-0.059941813349723816,2434
0.28713586926460266,-9.607919692993164,2.4349732398986816,-0.11818376928567886,-0.005387425422668457,0.03265389800071716,2447
0.05489832162857056,-9.445114135742188,2.451732635498047,-0.11312097311019897,-0.10877490043640137,0.16455283761024475,2460
-0.8237737417221069,-9.081194877624512,2.3511762619018555,-0.09606737643480301,-0.0056539177894592285,0.01799847185611725,2473
-0.36169278621673584,-9.595948219299316,2.693547010421753,-0.053300149738788605,0.07801532745361328,-0.0667366087436676,2486
0.15784898400306702,-9.117108345031738,2.8204398155212402,-0.010666156187653542,0.14942726492881775,-0.13335222005844116,2499
0.2775590717792511,-9.179357528686523,3.328010320663452,0.1624012291431427,0.07308578491210938,-0.05887594819068909,2512
0.4331822097301483,-9.768331527709961,2.0207762718200684,-0.16987748444080353,0.025522172451019287,-0.08712098002433777,2525
-0.19649286568164825,-9.387653350830078,2.8132572174072266,0.19437672197818756,-0.16419905424118042,0.1689494550228119,2538
-0.6801216006278992,-9.502574920654297,1.762202501296997,0.03290046006441116,-0.09438592195510864,0.029056653380393982,2551
-0.5843535661697388,-9.394835472106934,1.7502315044403076,0.03956202417612076,-0.038961708545684814,-0.06167382001876831,2564
0.258405476808548,-9.55524730682373,2.4804630279541016,0.05914701521396637,-0.06134450435638428,0.02332770824432373,2577
0.36375030875205994,-9.296673774719238,2.695941209793091,-0.06196018308401108,-0.06480854749679565,-0.0586095005273819,2590
0.5481038093566895,-9.327797889709473,3.1843583583831787,-0.13763554394245148,-0.02537214756011963,0.015866771340370178,2603
0.26079967617988586,-9.497786521911621,2.2985036373138428,0.06594181060791016,-0.10158038139343262,0.11365849524736404,2616
-0.17733924090862274,-9.402018547058105,2.3248400688171387,-0.05796324461698532,-0.022174537181854248,-0.007715165615081787,2629
-0.47661447525024414,-9.330192565917969,2.209918260574341,-0.09313628822565079,0.1105237603187561,-0.17745175957679749,2642
0.14827218651771545,-9.588766098022461,2.2769558429718018,0.0035895872861146927,0.1732756793498993,-0.2131577432155609,2655
0.3685387670993805,-9.236818313598633,2.889871597290039,0.008785605430603027,0.03378254175186157,-0.013177633285522461,2668
0.5361328125,-9.3637113571167,2.4373674392700195,0.010251149535179138,0.03871208429336548,0.0013445615768432617,2681
0.5289502143859863,-9.49060344696045,2.4134254455566406,-0.059562020003795624,-0.11956661939620972,0.12032005935907364,2694
1.4171991348266602,-10.046058654785156,3.4333553314208984,0.127894327044487,-0.15687137842178345,0.06849310547113419,2707
0.3517793118953705,-9.481026649475098,2.4373674392700195,0.14161714911460876,-0.16153442859649658,0.13950535655021667,2720
0.22249242663383484,-9.52412223815918,1.7909328937530518,0.11896783858537674,-0.20643341541290283,0.15522664785385132,2733
-0.1629740446805954,-9.124290466308594,2.9449381828308105,0.08419448882341385,-0.20323580503463745,0.09673812985420227,2746
-0.33775076270103455,-9.413989067077637,2.2386486530303955,0.1264287829399109,-0.11223888397216797,0.0616983026266098,2759
-0.4885854721069336,-9.366105079650879,2.3032920360565186,0.07779938727617264,-0.034565091133117676,0.03811638057231903,2772
-0.19888706505298615,-9.361316680908203,2.4541268348693848,0.08712557703256607,0.04204291105270386,-0.016908109188079834,2785
0.28713586926460266,-9.413989067077637,2.535529613494873,0.06341040879487991,0.011532962322235107,0.00787287950515747,2798
-0.04326394200325012,-9.358922958374023,2.6576337814331055,0.026105666533112526,-0.08226186037063599,0.008805513381958008,2811
-0.2802899181842804,-9.28470230102539,2.691152811050415,-0.024122510105371475,-0.09638440608978271,-0.024369075894355774,2824
0.19615623354911804,-9.428354263305664,2.5235586166381836,-0.06875497847795486,-0.024972379207611084,-0.020105674862861633,2837
0.18657943606376648,-9.6797456741333,2.157245635986328,0.03330015391111374,-0.07186979055404663,0.07688667625188828,2850
-0.31620293855667114,-9.435537338256836,2.2625906467437744,0.1528085619211197,-0.050153136253356934,0.06942573189735413,2863
-0.20367546379566193,-9.423565864562988,2.2003414630889893,0.16986216604709625,0.016862213611602783,-0.011578872799873352,2876
