accelX,accelY,accelZ,gyroX,gyroY,gyroZ,time
-0.11876224657833755,0.056523583534586044,9.80720634368524,0.06149634479060328,-0.031367387195599276,0.0191637452922182,0.0
0.8870207865641943,-0.08076480043874654,9.846959755759665,-0.017275132975543457,0.02383068345929093,-0.022880779993922268,0.01002004008016032
1.0483124224692526,-0.05634560229158329,9.82101677138014,-0.030196484524819368,-0.01741865112029947,-0.043008148640576484,0.02004008016032064
1.0728124978006772,0.09268183010860157,9.756174518593747,0.03310076363787544,0.001038030655862736,0.03567582563461888,0.03006012024048096
0.9903534430025083,-0.034663083232973305,9.843167238836024,-0.06324924473367133,0.03777417097401702,-0.04097720082561442,0.04008016032064128
0.9453303761130357,-0.07455160875069076,9.839735172223785,0.021505148329864245,-0.020166947443342187,-0.0001576651452372749,0.0501002004008016
0.9796215046863741,0.022797228443990403,9.825006207957898,0.004934844928351345,-0.007205701597921431,-0.0077983211601708995,0.06012024048096192
1.0329961944980162,-0.038212938768788104,9.813351761481014,0.013482682078349472,0.017757930536246188,-0.020646987008159312,0.07014028056112225
1.070705766696115,0.04980402867828643,9.821127962068518,-0.020602265614324093,-0.021425976817732725,0.01901529080753679,0.08016032064128256
1.0585420881771272,-0.05303341000686823,9.818590210335197,-0.019497810768970128,-0.0422004303385484,-0.037789014105336444,0.09018036072144288
1.128498468284239,0.08750196954309394,9.839788338204109,-0.012697765164640426,-0.011618950272586954,0.007758687818810885,0.1002004008016032
0.9714290323321894,0.13553080744969234,9.806678228307701,0.010447959299749216,-0.012859636491563815,-0.019301860658517068,0.11022044088176353
1.0182810242698548,-0.013344456231833344,9.818253418172974,0.06901100804935226,0.036901099327017226,0.020736445326916948,0.12024048096192384
0.9717551251826204,0.0255543480219538,9.862859391274144,0.06711465403249961,0.025094585458954627,0.023439163855446025,0.13026052104208416
0.8818628989282412,0.014290818012915575,9.829033931179108,0.05287108731171661,-0.014448943194460051,-0.003173147904790068,0.1402805611222445
1.3179862760134844,-0.02444655810321317,9.807887665779369,0.01711640364608894,0.012776158216068296,0.020763685773811862,0.1503006012024048
1.0156620801869836,-0.04893698399144847,9.763738792064258,0.07898005216864834,0.003866724341185405,0.020260494581565328,0.16032064128256512
0.9799180687290928,0.015518938932093615,9.817015889589797,0.013912478581009437,0.01207483982856545,0.050736780844695656,0.17034068136272545
0.8339642052517454,0.026290375417437947,9.807854772285106,0.07122447392194643,-0.02874997591120485,-0.0237052896252983,0.18036072144288576
1.056466019058183,-0.020063266022451915,9.800468456191533,0.0334590251509021,0.0015723815273903485,-0.011158982252359215,0.1903807615230461
1.0055820856769784,0.10286079153363702,9.83568701323365,0.001530637482778643,-0.05184118665502956,0.03328703127172696,0.2004008016032064
1.0276621458806752,0.012120782981914206,9.807973286573901,0.015102965471367278,-0.03280842816299892,0.00026022535926241945,0.21042084168336672
1.1890760607694182,-0.02196287426378171,9.802719233741279,0.09947363898865519,0.07313896742703432,-0.01949515123010934,0.22044088176352705
1.092210691734159,0.01986799966280584,9.836362701361738,0.03421077277607955,0.026334718970531152,-0.018744766260845914,0.23046092184368736
0.9584105250261894,0.012192329898124979,9.798961357602305,-0.004000352388462325,0.020344339939773307,-0.00866950014128185,0.24048096192384769
0.7793149879992847,-0.032456798691455326,9.787779104916577,0.034900424383326946,-0.017861120781230894,0.037163410003771054,0.250501002004008
1.0135294472667482,0.024793742776736002,9.82146995743479,-0.059873109701849433,0.020629307382032423,0.02544090388657583,0.2605210420841683
0.8973108934614435,0.02544227153341971,9.830871249688428,0.047790588035640263,0.01173615833459208,0.006760704628726552,0.27054108216432865
0.9558139886425039,0.0013736440616844959,9.817844001024149,-0.003933302974952445,0.014737938818465747,-0.010540284273971036,0.280561122244489
0.8682231459752634,-0.0410704263039387,9.784866008415307,-0.04386106138744265,0.002443650467302318,0.034846605472723446,0.2905811623246493
0.9188976136744619,-0.0694433532191938,9.776658956975217,0.1711214632607111,0.001867821467876005,-0.006417432263507601,0.3006012024048096
1.1628145974791617,-0.06570011980499611,9.788147000864347,0.018512783735626384,-0.004290892443820951,0.012556131839036148,0.3106212424849699
0.9289887029815437,-0.05140893275204063,9.81070987546944,0.004292302714878835,-0.03376524362307145,0.009758266819764392,0.32064128256513025
0.9337465664759377,0.10015238708243757,9.797890502239095,0.04559241169771309,0.007620107684698333,-0.0015538368091909877,0.3306613226452906
0.9533154373623812,-0.01101030512594788,9.838906470615802,-0.007441063425080739,0.02371632625657883,0.009260236959685326,0.3406813627254509
1.0496684312730218,-0.01264385676732221,9.813414705332766,0.04946136468515068,-0.030541450270323352,0.03322457972794008,0.3507014028056112
1.0593417872270314,0.08051764923420907,9.83608887492076,0.0290069658559108,-0.0013945402488223196,0.047618256332444486,0.3607214428857715
0.9908639961223816,0.006216142698650174,9.85817852418814,0.01810524299205033,-0.028806771878490983,0.030197178610397536,0.37074148296593185
0.9095663010519159,0.025844996607393967,9.80079271910682,0.024697681509118156,0.04533738071056539,0.003335919160645086,0.3807615230460922
0.9213197644095279,0.010144399891698672,9.79988324638607,0.0005175707752482217,0.012669245222090729,0.030316706205647352,0.3907815631262525
0.9736248393767084,0.019212035496122635,9.80098907781932,-0.06922657324130227,0.0005918188589896637,0.04421410254418731,0.4008016032064128
1.1566329043606105,0.059185921866100534,9.83491132860162,0.06413985170105457,0.02819942082740977,-0.01583080042910848,0.4108216432865731
0.9910507263392386,0.06540415116974835,9.825301253433029,-0.023380371410598948,0.009354343073195884,-0.03149758243270667,0.42084168336673344
1.1232510130394717,0.0475729745594405,9.848223499324739,-0.05261232604677851,-0.005280177088812312,0.03001808666019458,0.4308617234468938
0.8759004260281258,-0.006153188778045649,9.835609547573988,0.07047558308215982,-0.010208572850429195,0.0015902746330949814,0.4408817635270541
0.9790572412431409,0.0038116284867613067,9.797147483524387,-0.04352349875152787,0.003198535337580186,-0.07901420022756578,0.45090180360721444
0.9657350678383856,-0.028569718864054128,9.843801207760714,-0.008143542996103901,-0.039592388274318734,0.014899957979223739,0.4609218436873747
1.053961044912752,-0.012559639282811045,9.822702179238435,-0.08292979575854507,-0.009393088940403499,0.008263246131678897,0.47094188376753504
1.0055787904318412,-0.024643341172547337,9.844044520570677,-0.02890088625092499,-0.002900166445618201,-0.0008064163750569522,0.48096192384769537
1.017676294699274,0.06829917178455613,9.849440889227003,0.05136563892217446,-0.022695468772230207,0.007691715557800173,0.4909819639278557
1.0308560501205477,0.07828029819860997,9.841215164252107,0.014603587965755845,-0.04873357297203707,-0.07993559229993025,0.501002004008016
0.9483599427174204,0.00660654310334937,9.80539079200453,-0.04942963427126771,-0.005015317756663034,-0.0014247295846378043,0.5110220440881763
0.9697580915323394,-0.015392558398544604,9.800852769720795,-0.04054443363168684,0.008510738782652726,-0.010391774236569219,0.5210420841683366
1.067150377494874,0.055544585021557395,9.814700119956658,0.023589035160235014,0.007869731471885003,0.006473979086616555,0.531062124248497
0.9906026643244817,-0.029860386996042133,9.795921215490083,-0.03338527677175732,0.027494068782512506,0.013392832393516109,0.5410821643286573
0.936724244776339,0.011142318210514758,9.807407084371958,0.012344564787285716,0.02165434825599909,0.022958327783138017,0.5511022044088176
0.9919621221633488,0.01331902873121743,9.815765544220636,0.0691946489504986,-0.01064881641022233,-0.03611505915431937,0.561122244488978
0.9506996665033094,-0.00040488173190165343,9.797867343077089,-0.047867046850123066,0.015714785662831753,0.01387971053793656,0.5711422845691383
1.0500200148671346,0.07361843018616322,9.84323033900879,-0.053364881937456796,-0.023033712747667537,-0.0603245895867168,0.5811623246492986
1.186007180505644,-0.04051152019887292,9.812214760834742,-0.0258223936106838,-0.0023603801485008657,0.05965921087042089,0.5911823647294588
0.9447015666063552,-0.030619741656921613,9.825439410506988,0.028404170786969458,0.044751230948647816,0.008171113537867106,0.6012024048096192
1.141346340839475,-0.03560099381522515,9.811575666029402,-0.07548308078398702,-0.03265283202902581,0.012247376567357169,0.6112224448897795
1.167808967025935,0.009089531130226777,9.794480869963582,-0.06220585659790513,0.008877301790476218,0.018260312902194906,0.6212424849699398
0.8553638066839183,0.009987052873685613,9.822541996944766,0.014961038094154572,-0.02622584734018361,0.0019984935235227166,0.6312625250501002
1.0279615113411922,-0.033408635100523186,9.787813852516434,0.034311466312873115,-0.0017002984815630113,0.014595159678940975,0.6412825651302605
1.0768375020350995,0.017093963165957793,9.796851278038352,-0.0520031153375118,0.02234452979413896,0.05859484207468135,0.6513026052104208
1.0662740038511218,-0.019329574016360776,9.808482320261136,0.0560162613551656,0.046383170686380905,-0.010333596017817206,0.6613226452905812
1.111761305188898,0.010932929030434378,9.819821531173048,-0.1360912502878043,0.0209135470033427,0.05710386745015558,0.6713426853707415
1.038823529517559,0.07833550729510402,9.829583225651454,0.06362693145043169,0.009878050294041521,-0.02373647507814908,0.6813627254509018
0.9812150472505207,0.031193632316382027,9.755792396456885,0.02776024751072247,-0.008786770555754438,0.02495077189158925,0.6913827655310621
1.0903158643551705,0.06215720201255337,9.795863050220333,0.02256931658999448,-0.06601967562513146,0.07558710473847186,0.7014028056112224
0.97189663639497,0.0037579755381765495,9.817428097408277,-0.033497914926329475,0.00339832609542247,-0.019517738048594344,0.7114228456913827
0.8185328761173705,0.009517123881393707,9.824032236511124,0.016038764441515772,-0.0017069346614315838,-0.006149255524403915,0.721442885771543
1.060767180153954,-0.01640782263245484,9.787233674654708,-0.13026945342605475,-0.02425843744110944,0.003982634896391286,0.7314629258517034
1.0587150605639346,0.02295051615761308,9.792183555911684,-0.014574212117616597,0.0036596411528792626,-0.002312032052586534,0.7414829659318637
0.9066997982478421,-0.04070262847144013,9.815961517091335,0.053524692443804756,-0.026010800547857805,0.01786332641867278,0.751503006012024
0.9814510102828066,0.018739347178313225,9.828088348128405,-0.014597697932059433,-0.000954335361462116,0.003924216611867502,0.7615230460921844
1.1134804952435304,0.030779594159721098,9.80756321061554,0.012473568322571928,-0.02552834322982684,-0.0004571344022922365,0.7715430861723447
1.1637036050914011,0.039047003235536254,9.800953227069273,-0.039968181582141465,0.01705952799619106,0.016596904776916204,0.781563126252505
0.8585436940151528,-0.08333322131619655,9.793178046476044,0.057073835691119096,-0.00821851941045458,0.01175595943833505,0.7915831663326653
0.9604035684578814,-0.007582444405365265,9.823913897387332,-0.005625943413779349,0.06288292689813668,-0.046291359338525045,0.8016032064128256
0.9750110033708613,0.0133632621026777,9.8034203634274,-0.0897737342227339,-0.02929267978216262,0.02642419379917438,0.8116232464929859
1.0162584015417453,-0.035410746925058044,9.8159371284663,0.0717313921230999,0.006050820828120464,0.03900584315160018,0.8216432865731462
0.8401658369059302,0.05452749268820145,9.80733034099956,0.042191249516900856,0.014152062495075219,-0.006969411788782489,0.8316633266533066
0.8364881204082402,-0.03552471076210014,9.797443357557464,-0.05383480894801393,-0.044161367106184686,-0.06685379878585462,0.8416833667334669
1.0739238309661554,-0.050469999163610606,9.778110314749362,0.03010094163842153,-0.005012732574214744,-0.028349377437463637,0.8517034068136272
0.8481049590703478,0.07282475093898642,9.830053917456908,0.10498024916523127,-0.04363483104267813,0.04228511883313811,0.8617234468937875
0.9607699393731338,-0.0858834713191179,9.778252386067132,-0.03468006279331937,0.042773045397420925,0.07246069609997548,0.8717434869739479
1.0415495143190234,0.028608301348610102,9.827868464257392,-0.017264356451608377,0.030572084030174633,-0.00047623464489035414,0.8817635270541082
0.938273438234946,0.04120319144463308,9.800713396632412,-0.06848989255149895,-0.020044555654297587,0.03729787549498582,0.8917835671342685
0.9048917856329445,0.06716943090789296,9.804303867375125,0.0727077303832133,0.020830223271156065,-0.01767060862221724,0.9018036072144289
0.8174744494082562,0.024969719833029508,9.849056155594083,0.01004510855138382,0.012085257772640834,0.034306397666277015,0.9118236472945891
1.0479851250835113,-0.07937210349002541,9.799198564032173,-0.0021323205610612322,-0.01681962475551862,-0.03204360781134174,0.9218436873747494
1.2509806234306426,0.0352241587047609,9.803627319596414,0.04705321909335513,-0.03368777898619138,-0.028049190282063218,0.9318637274549098
0.9530850163946637,0.060053890974787895,9.808009602873765,-0.024660278659820366,-0.026884715046669203,0.0328566323343928,0.9418837675350701
1.057005580842696,0.06776309477204662,9.771919608952954,-0.07317749529287339,0.02938100374978356,-0.012519558467001686,0.9519038076152304
0.9578962699030688,-0.033268134798023284,9.836554787845062,0.0005547447240670054,-0.03912957826847162,0.03601596469275488,0.9619238476953907
0.858598095555801,0.05300754663702663,9.803531728689709,-0.044054898556246495,0.07246418338372042,-0.012224478639756325,0.9719438877755511
1.0957366631991503,0.07509144024570165,9.830335018456045,0.06382263268869079,-0.025324655709385864,-0.048268653935887,0.9819639278557114
1.1065024044021199,-0.0019439837723052929,9.806837567367866,0.06585147008592937,0.014837725886802362,0.022264470596937393,0.9919839679358717
1.227564795627771,-0.042449420159764654,9.823623370036142,0.07982545769312181,0.0308979137010577,0.01054915756458948,1.002004008016032
1.0852714257541234,-0.08433000954262847,9.802508405534107,0.06092809462815847,-0.004046015830167542,0.07014379652369233,1.0120240480961924
1.1063558364380268,0.017295605839953324,9.783687587973308,-0.008437878586471593,-0.004865826745573526,0.00529406863899772,1.0220440881763526
1.1181184720873443,0.007304094506465089,9.775802522021383,0.01717080317944416,-0.0057686598630410845,-0.001246147178315608,1.032064128256513
1.0115411689018086,-0.0376824648009721,9.848053248240426,-0.006696074300720511,-0.01367806255324895,0.024480550438554936,1.0420841683366733
0.9625122814763878,-0.03476771484975346,9.828534946659182,0.0014879834261811737,-0.012233970388413276,0.026684207415344486,1.0521042084168337
1.021678578437021,-0.03924183568490977,9.811574741636164,-0.0018637469989079228,0.02084853378204983,0.02365663399315262,1.062124248496994
1.1001411073213114,0.06680786957031921,9.816586349527459,0.042464573160870565,0.023130950438731392,-0.026131976780334656,1.0721442885771542
1.1064399987060825,-0.009431347399329016,9.783387374684139,-0.031558092752071915,0.010576588738576836,0.013391729245681596,1.0821643286573146
1.0706837394891706,0.03252299461406618,9.822144921872086,0.06877858310302955,0.0034892538472173977,-0.001337012120112263,1.0921843687374748
1.139907146916118,0.06579887907146312,9.793996242569388,-0.0024403299048210425,-0.032518381772476554,0.030882563355621187,1.1022044088176353
1.0601415313043345,0.02256968584802812,9.82378756566782,0.0613338583211872,0.06965236107374886,-0.013363164735967761,1.1122244488977955
1.1802634061192208,9.512548780865959e-05,9.79815620309978,0.03994385748019664,-0.029580341577989177,-0.04681036794110971,1.122244488977956
0.8667025565702942,0.04641775924873292,9.758391315550796,0.004110769121842341,-0.0023089170046131815,0.07350552328708297,1.1322645290581161
1.0796678150564996,-0.012299642158426006,9.79097784537138,-0.026208925256188877,0.04059851696852705,0.013326632245817963,1.1422845691382766
1.020711101654877,-0.040683258881598724,9.822413332398456,-0.031818379123828254,0.0010312032957195607,0.03543305189850422,1.1523046092184368
0.9185769703786822,0.10888348180003167,9.81718974191108,0.0622144287170388,0.016345149395989658,-0.018529358339690143,1.1623246492985972
1.0342136669600956,-0.017002159378490516,9.811184025495297,0.048464942227857535,0.05856386340816319,0.04164466238473031,1.1723446893787575
1.018514516322562,0.002643364242045464,9.793602925412339,0.005869523594289703,-6.371043971386039e-05,0.011168871816840427,1.1823647294589177
1.1171745949989889,0.027732057422592868,9.843295304744329,-0.04908899111003692,0.020256500780604272,-0.04409137594061247,1.1923847695390781
-20.104642438638592,0.010287185694965208,9.80915826726165,-0.07439918580186321,0.07128880112718948,0.04054054459920675,1.2024048096192383
1.0187734347604296,0.0033736052338244568,9.823130928712244,0.060836585180902986,-0.008421715942972825,-0.028813450701621342,1.2124248496993988
0.9639197876450065,-0.03341897445967791,9.836696633137233,-0.03703725642263809,0.06019195233960349,-0.03413982285795602,1.222444889779559
1.1023853504581542,-0.02638945800681905,9.816590407120136,-0.022933449714390756,-0.024192597658850394,0.018098827955551275,1.2324649298597194
0.9513386341595128,-0.025556459343421073,9.800822603828388,0.01173478104714627,0.0017655310252421457,-0.025452067402158513,1.2424849699398797
0.884056768298742,0.024082366855528732,9.778715847971373,0.035289763588392906,0.0015543205404655973,0.022594401922516043,1.25250501002004
1.0645789305548246,-0.036756140266940025,9.841319840664893,0.02327515586403627,-0.010546167000905299,0.0014652964906549906,1.2625250501002003
0.9419948447271002,-0.01626211305456011,9.821656960832495,-0.07211207468627044,-0.028148762772491728,0.024409314831995054,1.2725450901803608
0.8241017138630006,-0.01175506557086567,9.798037872024405,0.02405871388212926,-0.012860202130109102,-0.008499043672115144,1.282565130260521
0.9119523711914113,0.1276770827198492,9.805986162425587,-0.014448509447329994,-0.015803727153320044,-0.041012655568959465,1.2925851703406812
1.2150648169813576,-0.02161554609534251,9.811146661227399,0.024421554656125763,-0.023347365069467867,-0.04757469887706532,1.3026052104208417
1.1992840863017784,0.005673836086207343,9.775159922930907,0.009600469106270944,-0.047221623587909975,0.0009630883514601632,1.3126252505010019
1.0538530990550923,-0.004475506835700897,9.823335453915085,-0.03123765064448694,-0.007795316215670084,0.010726891065268248,1.3226452905811623
1.059549170774759,0.0016713847151711052,9.802238670813994,0.03450553210531819,-0.02634153614149461,0.012229262049529111,1.3326653306613225
0.9933045816930651,-0.10236605781000647,9.763452648781898,0.028836345042843572,0.050431436283259405,0.00017953581562332274,1.342685370741483
1.0894750172311416,0.059968477396527387,9.804651714878746,-0.007295994252903778,-0.023222216864346786,-0.0024134609275842903,1.3527054108216432
0.9337415144713247,-0.032374672522675896,9.81028126674492,0.05065459610367792,-0.04577411783414396,-0.030534604025080007,1.3627254509018036
0.9977881753437415,-0.0337314327526131,9.795987350773407,-0.02891978925891539,-0.04661575226617232,0.0021338590087422184,1.3727454909819639
0.9308124141778908,0.0925345289789925,9.802096299934885,0.015957510331722848,-0.03538774905011241,0.019612860312024114,1.3827655310621243
0.9569549157201577,-0.02795719119693001,9.809023293469103,-0.007215920544996864,0.02473226931611792,0.03158373034388636,1.3927855711422845
1.0018818667228593,-0.08540192600662072,9.80312530247046,0.013123026604164569,0.03191737767470322,0.024090002226195423,1.4028056112224447
0.8737176676149047,0.00036963105774068857,9.817192570489244,-0.02639555084049028,0.001757559759798563,0.005073016728026028,1.4128256513026052
0.9364723052593994,-0.04748921838791664,9.808766038475136,0.07459902255381386,0.023840680328771235,0.03383126446247966,1.4228456913827654
0.9648984559941705,-0.00675888931846513,9.827349968143237,-0.019341555680552375,-0.013762368716860974,0.007306218636999969,1.4328657314629258
0.8093608476588714,-0.016924848358060542,9.834625668958076,0.053497030709727465,-0.04311104363056925,-0.013801552191430722,1.442885771543086
0.9443261763260808,-0.028800202406587247,9.820732939839944,-0.07493376063918365,-0.0314196077774093,-0.038123040935989366,1.4529058116232465
1.0318359476892471,0.07136771701676203,9.813068731843158,-0.03654339305734468,0.023074053581781648,-0.00319217375404619,1.4629258517034067
0.9235930087691793,0.0012086357996795704,9.810327868778348,-0.04797063144413114,-0.0052453682461583535,-0.06960136419807818,1.4729458917835672
0.9679199833597191,-0.01593316856222491,9.804215654568225,-0.05691592007294222,0.001944930494433056,0.03730189529191846,1.4829659318637274
1.0458443875198231,0.039617497311144376,9.830458361652695,-8.499237550637674e-05,0.003454229645097636,-0.02305713900967167,1.4929859719438878
0.9297627010929449,0.037309874614945455,9.83873458839408,0.0166964192217023,-0.032030020685087576,0.02668571491532175,1.503006012024048
0.9632887153462595,-0.01573541501673575,9.783379198196116,0.12533098653315955,-0.017233608550556657,-0.03052158213932643,1.5130260521042083
0.8739687390263907,-0.013073688755142754,9.824930984851125,-0.05781938069219132,0.019262379806346226,0.045825250934307254,1.5230460921843687
1.1490003593514286,-0.06751262450357369,9.82146917309723,0.05110388741259681,0.020443260372213272,0.015195261733228426,1.533066132264529
1.1526003004389784,0.06281995062351502,9.777521013101106,-0.039069147218109335,-0.006849499025648598,0.01740269856206492,1.5430861723446894
0.8799629363972905,-0.03320995179121598,9.803914547234218,0.05202601861128883,0.044609632161652424,0.0013499790683020245,1.5531062124248496
0.9782270619575164,-0.08871258871209776,9.80210504439237,0.1084694377318881,0.004169747637715546,0.0332661329394507,1.56312625250501
0.9556344571425404,0.006508793107550895,9.780109532809758,0.017577472565958593,-0.0025997957875259292,0.0023162301850672543,1.5731462925851702
1.0100192631820832,-0.043252198521152696,9.850809241109637,0.024613488199366297,-0.018936965989528664,0.02396486869259106,1.5831663326653307
0.8872511980965715,-0.07578911192193383,9.770124366888542,0.06275483441401944,-0.02022834205822641,-0.015960283657041417,1.593186372745491
0.9720735568481077,0.003428849710316647,9.829768886243066,0.0501328990083143,-0.034989555914151926,-0.016041754972305606,1.6032064128256511
1.093599453683342,0.08769957850391406,9.810613395512238,-0.016406580492959528,-0.01669681219265618,-0.004003264558877134,1.6132264529058116
1.027508559050166,0.01504438309784022,9.85302467811122,-0.0052881687858296975,0.07227256280568413,-0.015536510305573924,1.6232464929859718
1.028065045670076,-0.038526058463957916,9.832965914855409,-0.11723534720784543,0.0033825495134504756,0.04470276383695713,1.6332665330661322
0.878381791412058,0.03299665734720384,9.80389693063749,-0.01849097682555802,-0.017374327791573857,-0.02833862373521851,1.6432865731462925
0.9093841532648679,0.04550375326886228,9.831837028585701,-0.03321810888342297,-0.033413840943575635,0.03868600313250521,1.653306613226453
0.9492626069260269,0.08669924192413284,9.82011523917802,0.12993025254944796,0.00867573496703091,0.0010215893284361056,1.6633266533066131
0.9390353744845826,-0.02606145868351777,9.816774947237704,-0.026477137328239947,-0.013332507136347135,-0.032583287185666415,1.6733466933867736
0.9105053050337234,0.07122568884080192,9.804509026358271,0.03396945689263256,-0.02069795903742067,0.042747638916630935,1.6833667334669338
1.0455857235340036,0.08030501861524367,9.798094010618646,0.0899860060259803,0.04792226815312857,-0.0414005223749011,1.6933867735470942
1.058294115447745,0.00748563269880554,9.820239953386436,-0.029029014094056116,-0.036523139160169,0.013394131239059118,1.7034068136272544
1.0084141755945193,0.09580031929016497,9.829531564912777,0.0428980834781298,0.030492719782818086,0.007886877283500716,1.7134268537074147
1.0093924293319219,-0.0034501322279962307,9.81433896190718,0.00022954611983096174,0.009421591878080037,0.07521389024888771,1.723446893787575
1.0937895848970585,-0.06463260610024253,9.83342450415062,0.004004500946877428,0.0056077423839325175,0.0002701708846481721,1.7334669338677353
0.8992951101234539,0.05221823845131329,9.828877196509083,0.04728161392061359,0.04436458699757495,0.017538105080061286,1.7434869739478958
1.0002780359250465,-0.05786024461036732,9.789299724618928,-0.10501677450186245,-0.04297861469390209,0.018777130330513862,1.753507014028056
0.8201583759103557,-0.010137191537791272,9.793259751529723,-0.026634183300176674,0.04345059042001213,-0.006820502958726418,1.7635270541082164
0.9385771258531612,0.013297327779543462,9.836067751428505,-0.008905486685335726,0.035315754063771895,0.020328589923361895,1.7735470941883766
1.0382626637026473,-0.04149617582592472,9.84461523548971,-0.01965315921096314,-0.005788454052077173,-0.02484977625917092,1.783567134268537
0.9822737024732328,0.029742451662814237,9.82391603824403,-0.043414874081348066,-0.0181345460086054,0.02441118636161815,1.7935871743486973
1.1455752111665132,-0.05230635036684986,9.802165751274204,-0.025276832762633074,0.03538564674335401,-0.04321982607020687,1.8036072144288577
0.9039996980545791,-0.06586382514474275,9.834747516486132,-0.07269077110575496,0.0199420683784912,-0.02085961297232526,1.813627254509018
0.9359610316930096,0.054728549473547716,9.787052696169786,-0.11821878094381374,-0.036313370331558924,-0.0009625646383264783,1.8236472945891782
0.9866516401501669,0.029133768545097857,9.81562268642404,-0.005935331417025316,0.02575275452226928,-0.03542788004677928,1.8336673346693386
1.0479131943156745,0.039965187521891814,9.777202542090782,0.03702743749934265,-0.033153068019106655,-0.06555691797401422,1.8436873747494988
1.0103139479294643,-0.0918723898299048,9.796995798372256,0.023358785244269854,-0.0067321854374131785,0.02172625166828332,1.8537074148296593
1.1138342507653367,-0.07946590268201896,9.773408498991618,0.016824522913754813,0.06791173794855081,0.02445912299636739,1.8637274549098195
1.183991226351691,-0.002338556117307376,9.82317109728948,0.03870309347302253,-0.013793765632620445,-0.03252897174444197,1.87374749498998
1.0932742813339493,0.016934067363818615,9.80606639159452,0.011697764808111062,-0.0022402700495677175,-0.05559366296027914,1.8837675350701402
1.0055509813577772,0.06142265607027878,9.804664857056082,0.012362684368752253,-0.003010486675400082,0.03055810498142256,1.8937875751503006
1.0532722568699826,0.0014732139539252432,9.816243521859835,-0.04060875037115816,-0.0019464612144478516,0.04670577959942777,1.9038076152304608
1.1096559857516943,-0.08453723186014317,9.820988492310935,0.04762844968232116,-0.05832253134221932,0.0030397345747230405,1.9138276553106213
0.9741863781771705,-0.055584997682318275,9.809260561429587,-0.042799280821102584,-0.06556551248496087,0.0059519526812417105,1.9238476953907815
1.1536810515972271,0.0614975661714876,9.822745925944323,0.004379015106043933,0.006247958794416118,0.008546683097197765,1.9338677354709417
1.1476532398106831,-0.048340032373225546,9.815700422826332,-0.01355471619778953,-0.02933799508523816,0.027333779697662056,1.9438877755511021
1.034005712024141,-0.02557497893825878,9.792535939818523,0.04719027678376058,0.00040108972976301963,-0.004387584005906804,1.9539078156312624
0.8825899618435434,0.07638752061941322,9.844084503484375,-0.058190083191287656,-0.015557200336265111,-0.039751911221450754,1.9639278557114228
0.992966782483312,0.018175484979588274,9.804247476568717,0.05266022009416067,-0.01159527568293977,0.022767463545876027,1.973947895791583
0.8776329689655027,0.032276060201843086,9.810188057274264,0.04852470834577355,0.007782655435643891,-0.04269834224476261,1.9839679358717435
0.9580991038630694,0.048167693685476035,9.813000324755686,0.03454237358985784,-0.0032057069796604743,0.008969681863179124,1.9939879759519037
0.9520202131724999,0.016699591706097177,9.834894065114177,0.017617446936428326,-0.04141774519434623,-0.016675248035821495,2.004008016032064
0.963384172074002,-0.12475405336835546,9.789461583293827,0.03934302430444584,-0.029754069533721714,0.04069342757258437,2.0140280561122244
1.1407045448949833,-0.0656671791205222,9.791420905900692,0.0934320705993149,-0.0483040229913544,-0.009596194790898347,2.024048096192385
1.0393832313441635,0.06605903119688074,9.811923501458573,0.1177824441505216,-0.026678506802686016,0.010981782029718305,2.034068136272545
1.1815261661128909,0.06309908862162997,9.847032426009333,0.05202493320434365,0.006296700777693329,-0.0025202229334200525,2.0440881763527052
0.9964392691167531,0.001148416845800525,9.816457842433758,0.06286881460955547,0.005238423670851731,0.03325426716683194,2.0541082164328657
1.138063839764032,-0.188068483349768,9.79887540353523,0.14454879442370142,-0.04022014016857736,0.0020001956855596166,2.064128256513026
1.172525353887325,0.005139005599671598,9.823024325902603,-0.004969981390283632,0.023391280908929373,-0.00955866531016616,2.074148296593186
1.071292102936741,0.04550394046137779,9.790241520833277,-0.024357130057642326,-0.01514912726195125,-0.011854591085649291,2.0841683366733466
1.1715417818988134,0.07745636755400793,9.863936248208296,-0.03562194265319871,0.016186530022983352,0.03538109544420773,2.094188376753507
1.1912555751006206,0.0056923671828909075,9.777832196824088,-0.05136464305416699,-0.0036363958196603207,-0.010617323256503802,2.1042084168336674
0.9572049468225875,-0.06044508903191127,9.820803536709722,0.023614037377011822,0.058275168786613755,0.04537313890499243,2.1142284569138274
1.0996621338210306,0.02022030565597988,9.767702642586018,0.013441208306788154,-0.01240627023135506,-0.01191231673671611,2.124248496993988
1.15188873345413,-0.012100017451465083,9.826990617519629,0.1153827274299182,-0.03509074436405196,0.024534483121090554,2.1342685370741483
1.040132009697591,0.02993425628734315,9.823720799966665,0.0897649133492923,-0.0069567506615169335,-0.04511986315478654,2.1442885771543083
0.9776348478397142,-0.02567819344600389,9.815874775341566,0.03907721433239324,0.03334281690487517,-0.03893716829812766,2.1543086172344688
0.9491645659869524,-0.04709447960342094,9.817847700059556,-0.05077423309626772,0.006819378953635888,-0.015577946164853869,2.164328657314629
1.0565827525952562,-0.09802695320821904,9.793316589974069,0.08184906353170211,-0.009939449875089443,0.03141387182431697,2.1743486973947896
0.9748373311398892,-0.020409376809730866,9.810921114517,0.14901364664486313,-0.007775765412616055,-0.012814269065012656,2.1843687374749496
1.1694359489309811,-0.08422115333114548,9.787324168147283,-0.024275992995348987,-0.008008532639906694,0.01556884969083007,2.19438877755511
0.9699329194489827,-0.0449489141509457,9.847867179021208,-0.016707385749439325,-0.021565117553886213,-0.006968912962061688,2.2044088176352705
0.7629953070663145,0.04025276536776007,9.788586741071482,-0.05010340853225437,0.0025789590901419785,-0.002804467929069784,2.214428857715431
0.9033037241448689,0.028994034628108612,9.79875080661726,0.041126140212618296,-0.0819333502207401,-0.004569580641159331,2.224448897795591
0.8903059541047593,0.038447962474310274,9.813496677360591,-0.06428690941716579,0.03209026294516443,0.040045953285215125,2.2344689378757514
1.0093604883069978,0.06951586417012996,9.818131993218435,0.06775350259806608,0.0321241466183567,0.0212337612203389,2.244488977955912
1.0292364290399454,-0.009273616415289903,9.82812879156238,-0.0014213050761744464,0.009460738846870929,0.0474228266431651,2.254509018036072
0.8957569988237506,-0.04392098644073986,9.817621653912553,0.03840352215599291,0.006897590795664481,-0.04259635703148947,2.2645290581162323
0.9271293275422272,-0.053750790649723226,9.812735462338384,0.04799021166503968,-0.010990423579442944,0.0007234394134074068,2.2745490981963927
0.8729551684322184,-0.09708542236061468,9.80443662007731,0.009826273422335849,-0.02768925663991228,-0.02844287513032178,2.284569138276553
1.1516479051458557,-0.012848492608461907,9.812371596462107,-0.03722970673475359,-0.0006232960888194637,-0.04889477101408424,2.294589178356713
0.9978462297081344,0.043970413093548426,9.82201612377186,0.05517865977175118,-0.0237521244936076,0.018378523932519954,2.3046092184368736
1.0046867907815162,-0.0026286903477372673,9.792819011211762,-0.025307348011908995,0.04319055275463751,0.02081795251173673,2.314629258517034
0.9773723615934639,-0.05944689543914118,9.827739162636345,-0.004258849372656465,0.0461400809097114,-0.00321749315362322,2.3246492985971945
0.8662861720896774,0.005677193323838791,9.786063220986405,0.11691617029027944,-0.02264302512832019,-0.07082046414525998,2.3346693386773545
0.9464725537928834,-0.006651377002213657,9.819966236725037,0.08545969873541813,-0.029358046503852,0.0128233736565204,2.344689378757515
1.1344354631354012,0.0913345125663573,9.851116207047422,0.06098881742412804,0.010270208185410249,0.06825022188457935,2.3547094188376754
1.1322642163416388,0.01835062321780067,9.786041378074497,0.05952342684747164,-0.004809314145731251,-0.010937307885377914,2.3647294589178354
0.9448154658558467,0.0038920605121531325,9.820684264715945,-0.012765311592584563,-0.014863051477940535,0.0018855443411348598,2.374749498997996
1.0191880794871,0.03624733622930157,9.804496656639387,0.006226100359966759,0.012861071627434217,0.05256986349279387,2.3847695390781563
0.9924634035840084,0.031560441646023805,9.834226573353185,-0.0037433285791926597,0.03969860273731199,-0.013711174824149937,2.3947895791583167
1.0015881312916923,-0.0010996925279189026,9.827186828419356,-0.046541678625190125,-0.0067061347117375,-0.03952931421833379,2.4048096192384767
0.9796170234696701,0.0708141103287391,9.795055344662273,-0.05217464893513242,-0.02227769540115732,0.01757395783054963,2.414829659318637
0.9576445985783721,-0.017858104056189563,9.806158646323409,-0.061579435118857204,0.012847698580008064,-0.005659182821597472,2.4248496993987976
0.9261191432183205,-0.03239823905269036,9.818154311001914,-0.018458039447793104,0.0014940505082816778,0.02597577015384267,2.434869739478958
0.8181876026738565,0.009886621448493095,9.80336894218468,0.0638734839148557,0.03837038041793315,0.045191537802074605,2.444889779559118
1.2073668273363896,0.004532804225514822,9.79900475825308,-0.0349980698779038,-0.04813728507793378,-0.021102134174064174,2.4549098196392785
1.0440971715517824,0.06812326911022153,9.824961371887259,-0.011133764149702435,0.03186420388126221,-0.017008512131153997,2.464929859719439
0.7368313678923901,0.12767089988044497,9.781322022414605,0.012434952313480421,-0.01205645954144775,-0.008820888194142408,2.474949899799599
1.0725446764920938,0.035511344992554116,9.784947890427713,-0.03698589700177617,-0.01592950492015264,0.010147956423609843,2.4849699398797593
1.0984630157252224,-0.12090350092922882,9.759919807428517,0.023190475896425727,0.028855208753433746,-0.0347955465927731,2.49498997995992
1.0824837362109683,0.01502910986108497,9.804451818779173,-0.07673838701019904,-0.00010229723912871634,-0.03582669689704935,2.50501002004008
1.0162096640578935,0.054310611847097394,9.798541199157015,0.019665282838811762,-0.06533602198032078,0.012690089207966259,2.51503006012024
0.9869493517226315,-0.06512976842631783,9.801301226823865,0.04916014460171189,-0.05065223081279133,0.02335445483417793,2.5250501002004007
0.9844721856558072,-0.0005875685477557094,9.782107397079578,0.09004821026190302,0.011741818598074839,-0.02898699988258939,2.535070140280561
1.0834951728369915,0.0004716473515183918,9.805502975041534,-0.06965656384980767,-0.04598469364946644,0.020338107369244466,2.5450901803607215
0.8920845205192759,0.029375461512550216,9.79130607601167,-0.004435653554417175,-0.012779531215316694,0.02351573831532541,2.5551102204408815
0.9949623358429673,0.06218135968317087,9.810360447546397,0.0005432415362003878,-0.0018356859456785475,-0.03458005573657323,2.565130260521042
0.8796685058581427,-0.006356758212001045,9.833054685656453,0.09430146676139188,0.03288706477684465,0.003685930961760037,2.5751503006012024
0.9578554611910208,-0.11159367480025553,9.791406307288778,0.09517120493008303,-0.0295128845961091,-0.002472385028550045,2.5851703406813624
1.0156367359818383,0.002267535454093677,9.793626532316075,-0.01214249972144715,-0.003536987399146894,-0.015193485347023363,2.595190380761523
1.0183845230276645,-0.09701910174453063,9.804610889578617,-0.04105049392363417,0.016815410360275868,0.006911163612738485,2.6052104208416833
0.8750385385665588,-0.044307398944639045,9.840615691418138,0.024769097404686996,-0.0031962449928178947,-0.022666993807374785,2.6152304609218437
0.9357403835083142,0.023098372367557407,9.853924047829569,0.03836754921968538,0.0017238251395535582,0.00820460082391144,2.6252505010020037
1.2037670753396708,-0.02930317257888986,9.820688439895532,0.020450484440856086,0.03840968851845634,0.05381435979686529,2.635270541082164
0.8429717770414762,-0.008002487694525445,9.811339836954202,-0.01778017514534217,-0.00657808418855434,-0.015197126231980922,2.6452905811623246
1.038386973892218,-0.052778168784748974,9.780782385041727,-0.001414149955054395,0.02214463635792239,-0.016866791720932323,2.655310621242485
1.0892068807224808,-0.009222459901570392,9.815828761554041,0.06121106216959393,0.012029741168196367,-0.014163726934424716,2.665330661322645
0.9691446954589497,-0.02204907343525521,9.812021467108131,0.04736621352387437,0.03227551328088451,0.011154702187576014,2.6753507014028055
1.0061347592934788,-0.013625276593003235,9.807383767750009,0.12707701048530232,-0.00722696786881663,0.003970662595125405,2.685370741482966
0.9114706440130479,-0.07739956215643655,9.808621738654878,-0.013732460259670589,0.029027686823556678,0.001291121018927061,2.695390781563126
0.8782926092291294,-0.08523117674089135,9.800285446649989,-0.0326893933818051,0.012287710761769747,-0.03081024496496267,2.7054108216432864
0.9712939673732346,0.026905156175646573,9.803259196621523,-0.05458107160187649,0.051234961619829635,-0.008130770097980819,2.715430861723447
0.9899661951181022,-0.008105472345318809,9.832007444650886,0.050512818466221444,-0.028377451129499437,0.009574587182434835,2.7254509018036073
1.143718425186071,-0.012672385802668827,9.814169456924922,0.10813849255307068,0.004702022900596611,-0.034858981660881104,2.7354709418837673
1.0533531454463045,-0.00996912882922828,9.8351839962334,0.0241088561470846,-0.017445205786734034,-0.019232017274956315,2.7454909819639277
0.9059051359737069,0.06729602247644781,9.803233982029969,-0.036046196318468726,-0.015350722876121195,0.013490978117468157,2.755511022044088
0.919104538606698,-0.024556585761615138,9.812275924752983,0.059388377056388816,-0.009537955960958433,0.025994884890770315,2.7655310621242486
1.1188701785999318,0.0250303670075243,9.790351929451463,-0.011763412463401436,-0.03743127106933469,0.03093262163890979,2.7755511022044086
1.112122042699479,-0.039521810821582244,9.812193176655665,0.019743550222056844,0.02950061748628175,0.07340444454130891,2.785571142284569
0.920256428078231,0.018662941575221255,9.785829044804215,-0.09542454959131189,0.020437558601018226,-0.012691234037494734,2.7955911823647295
-20.142653031229347,-0.01744544201100631,9.797585961584575,-0.13168506431124977,-0.027216724178069543,-0.04688524686302345,2.8056112224448895
0.9757567616542233,-0.03547735475030688,9.765595885354436,-0.011708236437075924,-0.013234148770337233,0.05208869300611967,2.81563126252505
0.9417810442846904,0.0228490580162868,9.844114533278518,0.04866350937117484,-0.0386929537724744,-0.010380371157120304,2.8256513026052104
0.7857631611054587,0.01270376160847745,9.793940110301088,0.0328778246967857,0.06589673817322264,0.010657397539956174,2.835671342685371
0.9532738417050277,-0.0061017345293482095,9.801335130091912,-0.010886843570075813,-0.02221046830698079,-0.007327171179343073,2.845691382765531
1.1679448703276178,-0.005227536412641268,9.844388216338398,0.002256928574280055,0.0590740759202193,0.0007981945704549499,2.8557114228456912
1.1380503168896527,-0.04275283989197806,9.790878258416685,-0.03282313615879543,0.021451495597443245,-0.0014654716151170216,2.8657314629258517
1.0582964750716615,-0.009315194125822126,9.819016374925258,0.03538358504800533,0.06273062119038902,-0.013400196551325128,2.875751503006012
1.0620161579118257,0.03594571429873934,9.816546923324664,0.05093623336806817,0.03443547897049451,-0.022074140137992332,2.885771543086172
1.1013401210830136,-0.0427967970586455,9.816120977022086,-0.005404174229729936,0.02760099888673471,-0.023927840348684958,2.8957915831663326
1.0149174931007883,-0.10148801408300534,9.827367723401352,0.04606231732712486,0.011821312749649497,-0.01917757188090507,2.905811623246493
0.8423427293981659,0.001356437569560324,9.778861272624447,0.011293734603375382,0.04926254579932304,0.016860964961839413,2.915831663326653
0.9114215460256957,0.05521503434134817,9.80716115750273,-0.028348165832843122,0.01809591137541357,-0.015099890902708154,2.9258517034068134
0.9615238924414629,0.05832780440515061,9.79967540317743,0.07882996219505808,0.023397788116924053,0.028724130908011725,2.935871743486974
0.9782812484990175,-0.034207771506816795,9.797717601990994,0.02685029158365155,-0.011389325054697377,0.034986194519141756,2.9458917835671343
1.0367894206360342,-0.03132309199487876,9.779172323544454,0.00552820008924948,-0.006740986828887995,-0.0277347484583535,2.9559118236472943
0.9621806121023444,-0.049159166518290526,9.812391457931552,0.157021239773834,0.003788746911532885,-0.0089373570883983,2.9659318637274548
0.9940634449434791,0.09244094441875766,9.838515756344252,0.03985318180009903,0.04452908719974637,-0.006125600668007694,2.975951903807615
0.8952029593055276,0.013113628908070989,9.826141435118819,-0.06650665459318361,-0.04874857712915173,-0.0031573489696137577,2.9859719438877756
0.9848492945262224,0.02689053491153384,9.829400986766464,-0.017447192317291273,-0.008169952229163942,0.05875161235512308,2.9959919839679356
0.9309578655126053,-0.06245283798038616,9.806817462566427,0.03254670685298518,0.03809818562721336,-0.04626875094259493,3.006012024048096
0.8481837522024196,0.02587086172555951,9.804328035949345,0.033910270207128626,-0.017623765943731363,-0.01586117538482061,3.0160320641282565
1.0023386647473453,-0.07975705624012716,9.824667081540776,0.0059099718224250985,-0.05157328732308183,0.0043208055710868935,3.0260521042084165
1.02295555123183,0.03716078619270159,9.770644629360321,0.033118189682045884,-0.03638656516784244,-0.01917181752949923,3.036072144288577
0.9655850415496837,-0.05707492830009858,9.785984726943138,-0.03781657357371607,0.023225176084091498,-0.008570499900579247,3.0460921843687374
1.0898129277625315,0.05583196475961988,9.824816831675523,-0.06268176234885836,0.03586017248488963,-0.033973432723794994,3.056112224448898
0.8301485683589476,-0.04394072223741038,9.831504903718834,-0.04438669648532504,-0.042218018543128975,-0.040552251270734745,3.066132264529058
0.9538235835608622,-0.006657827935843855,9.782682798841115,0.08539034332355833,-0.0008646106941216803,-0.0619807358672768,3.0761523046092183
0.909504116026858,-0.015015918339904108,9.79348644414815,-0.06277351093120609,0.010259384872717471,0.0226997842959152,3.0861723446893787
0.9872631980373499,0.030225351776778875,9.840314242847889,-0.017380168803005632,-0.032452659543481116,0.03310151045203168,3.096192384769539
0.8764934787276566,-0.1009637405757661,9.82221751320129,0.06232459905812199,-0.001031104737582255,-0.023488927559167677,3.106212424849699
1.0693803302957738,-0.05455544725213444,9.813539346928588,-0.07802976697801087,-0.022662699211223172,-0.04794481961795752,3.1162324649298596
1.1453140193836382,0.06877290407779757,9.813594161645515,0.0031923300273304445,0.01107182370155592,0.04356185538326288,3.12625250501002
0.9180203043499707,-0.051395452190528094,9.763339384045265,-0.026806046446990556,-0.031768098187667085,-0.03166713380274364,3.13627254509018
0.9645190258420347,-0.06451537315286175,9.829183267918715,0.02044404370870704,0.009694388691509006,-0.025456541993557687,3.1462925851703405
0.9039742170938676,0.08591877936720523,9.825939753209754,0.01926572001862674,-0.04439584282700314,0.030615774205590248,3.156312625250501
1.0560807606664977,0.00254016199379085,9.809718949489504,0.027947444531665613,-0.04298144673285284,-0.03674468365423502,3.1663326653306614
1.1362816949291143,-0.02249744920661888,9.827349113760073,0.08253722978091492,-0.022558782290859596,-0.03317463613049281,3.1763527054108214
1.064381243729644,-0.05170265230763608,9.85221444434988,-0.01638833792638671,0.017892882694726078,0.009524277204217675,3.186372745490982
0.9713554941327748,-0.0333224239975386,9.810302551953033,-0.03312255457721719,-0.021424235229808634,0.020840005598081936,3.1963927855711423
0.9390634495658137,-0.010477740407565809,9.812339808982902,0.041117871195743866,-0.016325387696554887,-0.010321716604962373,3.2064128256513023
0.9878059346854244,-0.0030567077218764073,9.816068098258354,-0.03033614074046547,-0.028572049731005834,-0.029598003811552535,3.2164328657314627
0.9686825221254894,-0.010556707654150708,9.81726764049842,0.034589729105987885,-0.058623263835143824,-0.01932603492227898,3.226452905811623
1.1583513081707772,-0.02858097936212491,9.854922332412904,0.047065398452120266,-0.010849381225003065,-0.05724093931941054,3.2364729458917836
0.8993503700988389,0.03816311660890926,9.793294931658519,0.05000370750288265,0.025782807289138263,0.011418264799803807,3.2464929859719436
1.0100123563041858,-0.04880791652546202,9.806403781334716,-0.043875759605758305,-0.00042354833441546693,-0.020185179279069244,3.256513026052104
0.9830612476661411,-0.01698439313931481,9.833528021678527,0.02885033150308758,0.01375365388553665,-0.007489731492859061,3.2665330661322645
1.0043096192992207,0.03866464040942325,9.799257141584006,0.0710740506509833,-0.010165274736772941,-0.005697524151256542,3.276553106212425
1.036652641243967,0.07033819286290957,9.828093252492502,0.029829308254105687,-0.017484458641274674,-0.010878646458926111,3.286573146292585
1.141251928633341,-0.05754665768381099,9.790931065085411,0.02272712616427368,0.0034965196210871687,-0.0348851412498489,3.2965931863727453
0.8963803774957305,0.034846662405120556,9.818702382728624,0.04046200328083713,0.009698446831435404,-0.013493517564173533,3.306613226452906
0.9063220780481195,-0.06561457195983164,9.81835858002425,0.01853221271521549,0.03528558320837245,0.0007799449730709157,3.316633266533066
1.0026798314470011,0.04237069155241512,9.8008921613405,-0.05176433104403938,0.019172132216659792,0.021221575979627146,3.3266533066132262
1.0813847785416328,-0.04328609505488053,9.790141954758177,-0.018374118295322473,-0.015142845362458116,-0.04978125691822002,3.3366733466933867
1.17398669966279,-0.008647725941716988,9.805089918250909,0.021823812501590746,0.022067109450962175,-0.007701338831993081,3.346693386773547
0.98190098965348,0.0641486731230276,9.81524519517213,-0.06124393163818191,0.0034129651712834384,0.0003535815451889339,3.356713426853707
0.9465913662176004,0.04518650661217919,9.797240946701809,0.04826368281362925,0.07629423028510234,-0.0026955586976909474,3.3667334669338675
1.0213233970970172,0.010953995804306078,9.80250000533048,-0.07619497681907104,0.0027436512796334437,-0.028653169031686937,3.376753507014028
0.9701528709824271,-0.08576484155330649,9.793970394228031,0.011807916259840628,0.012681483535980233,-0.02439384315518465,3.3867735470941884
1.124202553999764,-0.06421804268055532,9.821993908554234,0.0741167094195304,0.007267364821536055,0.05049128504143948,3.3967935871743484
1.100551915787472,0.013875732210738907,9.796053094398118,0.003333119034176161,-0.05090726005786199,-0.001800778323682129,3.406813627254509
0.9321945148039601,0.017480600611956526,9.797871119738584,-0.03296009337361008,0.0733032804474164,-0.015531931305263594,3.4168336673346693
0.945008648245813,-0.05575462257772144,9.807512493925078,0.0185251766650604,-0.03849066216189773,0.04017105447196338,3.4268537074148293
0.9859379230476683,0.054994827056133434,9.816430069863046,0.09406402887399658,-0.0101687143919016,0.04273328693702605,3.4368737474949898
0.9484624507773244,0.058710056153758974,9.803221102015373,0.03822304711653343,-0.03102976383686275,-0.012087643011738073,3.44689378757515
1.0651586598275204,-0.03765568763637538,9.835082962209864,0.0351235640100761,0.015580590444031463,-0.008710290279753395,3.4569138276553106
0.9663541939252467,0.016400296343252223,9.791636846220477,0.015574692466500745,-0.017390044890011364,-0.015328861701503752,3.4669338677354706
1.0517888656741656,-0.0684296030164797,9.785528262726741,0.012131710597230285,-0.0224150791692584,-0.012884736519345625,3.476953907815631
0.9541204784170733,0.10336064388635842,9.846958141005263,0.019031701990625406,0.00855972209796319,0.018818468644202644,3.4869739478957915
1.0621728404029152,0.028114590323035246,9.778362990315133,-0.006523933459847798,0.011976961875608743,-0.027923043103383633,3.496993987975952
0.91691629931231,0.09013451606750018,9.85079444425682,-0.07164982138599049,-0.043448147036419374,-0.007123181265213704,3.507014028056112
0.8969914969489143,0.051318432293166884,9.807622861258695,0.021710881252923857,0.0026372421847700297,0.018558636801058643,3.5170340681362724
1.0824845223036927,0.012225539317327606,9.814734897299779,0.04674850838452072,0.0007816596742983827,-0.012510863601592192,3.527054108216433
0.8814587216359644,-0.04795023848720881,9.774797349852049,0.02152102341309603,-0.024159077297854104,-0.0009839368360400821,3.537074148296593
1.071930736494912,-0.15609892228177785,9.803419710068741,-0.025509702746532255,0.03226440381783617,-0.042196483468608666,3.5470941883767533
1.0241639482094431,0.053957299242367765,9.828038988653155,-0.05003830232637727,0.031143031150532893,0.02581601629947505,3.5571142284569137
0.7900765028623923,0.06828231097722473,9.787805171802855,-0.01444580679133993,0.01257061014117866,-0.011488395741758455,3.567134268537074
1.0823206001680041,0.014446858634794533,9.79877216015047,0.04860454721427196,0.01491928543937964,-0.0076100834309021795,3.577154308617234
0.9545000307653935,0.09157339132537018,9.803228434160536,0.005699421802882936,-0.041878147416778824,0.013119333563184643,3.5871743486973946
0.7855574994044878,0.04265964638874279,9.831492156180577,-0.03965487829958889,0.0010522672973771196,0.01141115679715944,3.597194388777555
1.0489555908092076,0.027262258638163797,9.823902267334217,-0.002421606458160674,0.015815311199793913,-0.030620902027334904,3.6072144288577155
1.1332493127734486,-0.05654994602723569,9.810887617771444,-0.024381916419148775,0.0776290361389245,0.02889598265106094,3.6172344689378755
0.878277004191319,-0.026989503087565,9.786199134131136,0.05003548251372721,0.0005844533713115873,-0.007076554614621942,3.627254509018036
1.0377251386091153,0.0022988040142338864,9.797513852691761,0.056105309907616106,0.06036962139783346,-0.03989645901988695,3.6372745490981964
1.007303729541419,-0.0478887311472195,9.819646652805359,0.04001407710436351,-0.044407375169301426,0.011214479092265616,3.6472945891783564
1.0734209082890451,-0.05047294061637521,9.784798989390785,0.07207478375713318,0.023046210675596656,0.044010701934962974,3.657314629258517
0.9562757149841458,0.04282555641825146,9.79200901851414,-0.03655919529939988,0.012452005267257763,-0.014815792894466192,3.6673346693386772
0.952699010021505,0.04783523667439855,9.791551280419927,0.10247497489977515,-0.0005971397269147232,-0.016593200534409675,3.6773547094188377
1.1002644514744322,-0.025309325795990257,9.802423033286322,0.02997919108665026,0.023691275673396683,0.024208960163479454,3.6873747494989977
0.9794031373482054,-0.014304507824885666,9.771483034868766,-0.05366089713697346,0.031513711106670485,0.011740691055273087,3.697394789579158
1.043518934526403,-0.0026740475744669438,9.788876332989156,-0.03011266748926761,0.022101878534007975,0.01892143285270003,3.7074148296593186
0.9574688169699008,-0.029055728129557423,9.844957838272622,0.11629646369114675,0.01244704565585409,-0.006349975778913107,3.717434869739479
1.1011864235030728,-0.030914632379518664,9.837285573096281,-0.11147932707162699,0.004171944934983841,0.026760863726962583,3.727454909819639
1.1377677036227591,0.0032578506008424436,9.8238723487464,-0.11272998188783706,-0.025579090435190528,-0.03678587971119218,3.7374749498997994
1.10271320600876,0.09597954501373138,9.806879087935078,0.005864806772355781,0.025955836665305324,-0.025567897166948784,3.74749498997996
0.9251186368514904,-0.03932449074791392,9.832757888769438,0.007491655360719007,-2.862990068716242e-05,-0.018722381548486555,3.75751503006012
0.8660278815308047,-0.008758850006305878,9.812746514886362,-0.00691479626480062,-0.04408365540448896,-0.019992606893689008,3.7675350701402803
0.979819979691235,-0.03407244701233473,9.809583028355238,0.01254110998972189,-0.0039012816734077904,-0.05255230645115931,3.7775551102204408
0.9554585856914068,0.08705114735982145,9.806503076029907,-0.006678831396505627,0.023670411243067693,-0.03224487077790891,3.787575150300601
1.087475611823853,0.017950247375448935,9.80906343938609,0.010628281763261164,0.0219078638234005,0.05213931078661485,3.797595190380761
1.0633326262283078,-0.03315164044727472,9.820256388267047,0.04849585491804152,-0.019461931678623492,-0.015494477736416611,3.8076152304609217
1.1390362836289911,0.03358989844195805,9.816934205538816,0.04576085954695668,0.007068334129253556,-0.035291507420096714,3.817635270541082
0.9808073271625829,-0.0062572669424504805,9.831240932016089,0.024339680263570352,0.027732628152264256,0.014281958210886353,3.8276553106212425
1.0502697103673064,0.06031213087415365,9.79571688635981,0.01358796103265366,0.01676379586636622,-0.031720161613087224,3.8376753507014025
0.7733864644118917,0.047998192998912725,9.848533417795784,-0.07269746839385893,0.015336029046406395,-0.04110266592525506,3.847695390781563
0.9922213676248904,-0.037872139943224276,9.801898598485918,0.020011925812135165,-0.026655351083805023,0.06431215176937895,3.8577154308617234
0.9813148034207305,-0.00767425804477282,9.790581501195053,0.03505042557128939,-0.013388437197623355,-0.06310280409650944,3.8677354709418834
0.920784064345194,0.01701996109465587,9.812993743466883,0.0810472322175797,0.004159103904870392,-0.004217130646877566,3.877755511022044
0.8921000189530149,0.014918473386179288,9.80096673202089,0.035194070591343475,-0.055289768127952076,-0.0017360488884375612,3.8877755511022043
1.09697407967485,0.05031482703813428,9.78990934365554,-0.0004840537659433347,-0.014437344841193174,-0.025444100666466057,3.8977955911823647
1.047067895980136,0.038301896029871885,9.83673312842259,-0.017705924965339015,0.022104471194722267,0.01352423896708716,3.9078156312625247
0.9558611449408448,0.03307485498207732,9.818917934033498,0.013175954266469607,-0.00643110102025675,0.0062101334325298406,3.917835671342685
1.1252340654049104,0.003278422395786338,9.77772109226284,0.09131438378031517,-0.021372471664651782,-0.016822846283868716,3.9278557114228456
1.2361564119264354,-0.0171491289023968,9.798160811419903,-0.057098838087119935,-0.024418853849278062,0.04662609862803874,3.937875751503006
1.0836417901658835,-0.014825396378031,9.798476366751794,0.05038779273925197,0.03667644898413289,-0.03299496580266667,3.947895791583166
1.109087475810423,0.020070176946240175,9.808271962808474,-0.04449720540237559,-0.012152042099354455,0.009882518680397323,3.9579158316633265
0.9242019221622585,0.07475596200397704,9.82555393887452,0.05873063477291873,0.003896605584650738,0.02177735473003656,3.967935871743487
0.9404011700151917,0.01056107227959361,9.813757429674336,-0.00639311408193835,0.042380549651315734,-0.0007161521470224435,3.977955911823647
0.9753964417969528,0.032571853709915215,9.824710227451483,0.08496615239807352,-0.019889784580389695,0.017643569101955147,3.9879759519038074
1.0481228702433534,0.022825349320546327,9.834532320331332,-0.02086471931426311,0.020765677488589773,0.001581903487879076,3.997995991983968
0.9938107113365624,-0.04419229050705777,9.85783189383774,0.03259703406233022,-0.009248143757638624,-0.03210477648117677,4.008016032064128
0.9490910891544764,-0.009171657914354031,9.783264205908248,-0.07743102153226444,-0.03070339249366423,0.037521745585350416,4.018036072144288
1.092886276043803,0.07308024447448269,9.78353429225299,0.012749521216361647,-0.03496298094117322,0.017360577709371734,4.028056112224449
0.7588109258332922,0.03364471158576693,9.827045477543983,-0.008813246582442202,-0.015072098770077142,0.03921893701879276,4.038076152304609
0.952116129363832,0.04676080508300448,9.805650155936933,0.03152884173007953,-0.016447146874146553,-0.01860895829857719,4.04809619238477
0.9733027605655475,-0.04493638694575769,9.777910412487065,0.051554377136918655,0.02963078522769076,0.01681421386617534,4.05811623246493
0.9666646771125903,0.07232712429006448,9.818214227253831,0.08595883364448897,0.029394287131176765,0.0285036759809802,4.06813627254509
0.9415571299761322,0.03195180088644642,9.808010423087335,0.033848105864548214,-0.029364294392252018,0.06327785568224904,4.07815631262525
1.1125850268930184,-0.02323863177601221,9.796660633224809,0.003934378730530223,-0.02563566752129558,-0.005849338470778658,4.0881763527054105
0.8600156968786811,0.0067234343228557815,9.821576582208223,-0.038806319683356134,-0.015011738486165807,-0.06599036685192476,4.098196392785571
1.0204887203082371,0.005858953365531803,9.803066588214433,0.05751482168275304,0.011081198826280088,-0.005101331502378967,4.108216432865731
1.1348538527425447,-0.04090477011413238,9.838607637866529,-0.03304126628482136,0.045729815165502966,-0.04987618733805425,4.118236472945892
1.019475608139693,0.1076900169084309,9.758882178580604,0.06552624473392146,0.013070406609621681,-0.002146131194589348,4.128256513026052
0.9601801931146383,-0.013117128354742269,9.825205737109998,-0.0505648140263941,-0.00655828457784204,-0.02692032289060334,4.138276553106213
1.142964851757,0.08097655759438316,9.805066671744987,-0.004524338826312006,0.015980853572138014,-0.024872347988822353,4.148296593186372
0.9568016939638352,0.096487327711207,9.78129927480899,0.04826198561218623,-0.016184273340156135,0.0025259224274213152,4.158316633266533
0.993909397306437,-0.039312082973191054,9.821682325638655,0.045996186262180744,0.01481584600969857,-0.002798431046029558,4.168336673346693
0.9807099142209776,0.04998885326800022,9.802768222313379,-0.019637418546643328,-0.016058908469703755,0.005875350444114726,4.1783567134268536
1.0101548724352707,-0.08101149919742058,9.782398226069047,-0.038559049542427615,-0.029042807729837337,0.019034966887554395,4.188376753507014
1.0749310846260975,-0.0023604557307409565,9.793507120887936,-0.045097354683559146,0.01430828850541231,0.0037256683809320083,4.198396793587174
1.0349568657329185,-0.05997251739422819,9.77700971791368,0.0062054566015755114,0.06268786711956825,-0.06752290591974554,4.208416833667335
0.8959342183235833,-0.01632813392926503,9.790347646578256,0.03003754508459429,-0.03229710031963088,-0.03705300164915253,4.218436873747494
1.0596114876026999,0.007403175623107869,9.794458511302132,0.13648166508156107,4.1505089462540494e-05,-0.006046737878014169,4.228456913827655
0.8326017979732394,-0.002104328271228885,9.82338791343076,0.03481471331795549,0.0011741927788789833,0.029387692195383678,4.238476953907815
1.1517809740463503,-7.818738606175322e-05,9.817299310155056,-0.029562241114692106,-0.0194644456759463,0.02733977875865339,4.248496993987976
0.9247431728965586,0.035576716377988836,9.833476964972858,0.15947512900183927,-0.0092129279693614,0.026469349968454473,4.258517034068136
0.9584142718220904,0.06135783515064985,9.79403520579626,-0.07724888346778574,0.01589869044424494,0.02273304707839343,4.268537074148297
0.9402229041879605,-0.07024077513394147,9.80156079085632,-0.0559098551262988,-0.030931175783815268,0.013457955399539687,4.278557114228457
1.1070128918414823,-0.12033082507931225,9.802793173446444,0.04711071950024192,0.021028925671747096,0.0031015176038660932,4.288577154308617
0.9532369984142995,-0.02910877525523401,9.83548164140896,-0.16198116962363662,0.021288102236158752,0.002741261735247245,4.298597194388777
-20.070595164145836,0.0914938314878866,9.788981475117719,-0.10872053711617313,0.018624370917093503,0.013384012007749418,4.3086172344689375
1.0705720971848103,-0.026538594578227173,9.789588446844268,0.027607156145666452,-0.018976896601466384,-0.01858477036945115,4.318637274549098
0.9392173666070384,0.032832404136166074,9.787572201237595,-0.03706226634289179,0.014515728081882963,-0.005877314484811301,4.328657314629258
1.0386354591135216,0.039935729896008604,9.809391257180343,0.04841865639415962,-0.01309919944641883,-0.03137241405878294,4.338677354709419
1.0783890194856063,0.08660913266058107,9.811936588025649,0.04494577625072048,-0.016799829537152748,-0.0076522319563440515,4.348697394789579
0.9850576851986335,0.0048143909491639965,9.837470080205913,0.00035782722220644575,-0.0223391182734709,0.040130599266711676,4.35871743486974
0.9784635657684233,0.0031602565912545264,9.78458669267754,0.12983468300828727,-0.007483320712720795,-0.028387389169021802,4.368737474949899
0.9047177987475151,0.01687924715529344,9.815559195996789,0.006385571681431156,-0.01188333276439572,0.02750607792625168,4.37875751503006
1.0135980286493365,0.009811488466583052,9.816512426067279,0.059872593390702944,-0.028016398730017815,-0.059905772655959394,4.38877755511022
1.038027335877022,-0.04063600456079358,9.851033973456724,-0.025260221478989167,-0.005306254021604135,0.0018111966056900122,4.398797595190381
0.9515169787267053,-0.010444886566961655,9.81281233890611,-0.03625383703565248,-0.024139689025124113,-0.012204846424646351,4.408817635270541
1.0606769031074876,0.01011945251775564,9.804515749152849,-0.018949728408326635,0.030956738840728172,-0.02053784759392832,4.4188376753507015
0.8973456715509991,0.06334052977536067,9.82717969850775,0.053278391298533165,0.00801816831794718,0.0005942583557255416,4.428857715430862
0.9763137836251835,-0.11398534065910765,9.825365112856227,0.04558094468506668,0.027850027058537407,0.03318650861777362,4.4388777555110215
0.8649010860502386,-0.038528122596836335,9.779855396317842,0.04493390711856462,-0.016076911889683593,0.07909671297052388,4.448897795591182
0.8539846351467475,0.019042508460304933,9.83228247611607,0.023126173550182066,-0.02276380933017944,-0.03517133179732272,4.458917835671342
0.9253843572509555,-0.02712913123208721,9.818942397491469,0.0489305073683481,0.0016194222959220487,-0.01106060096916207,4.468937875751503
1.1247910331928972,0.111891266484485,9.764501405404618,0.04504300867582141,0.020861344641372723,-0.04539756064240309,4.478957915831663
0.9885143382201214,0.041872406409090755,9.81545343656472,-0.03913551254148447,-0.019381351314022723,0.02729429441459939,4.488977955911824
0.8807243612900566,0.052007283605715694,9.792253811294188,0.11571368384030933,-0.022906564023958506,0.020803418209338054,4.498997995991984
1.1868194656555384,0.05869943643283481,9.800592986708445,-0.015496044905159989,0.06350141310780474,-0.008172347689038918,4.509018036072144
0.8292973743276978,-0.03158808465427689,9.850945039574544,0.09966858919817595,0.004999835087502435,-0.002067696395699984,4.519038076152304
0.9077677067641167,0.0639613748895976,9.781579061124798,0.04135821014506827,0.05935072751171829,-0.01232935287787811,4.529058116232465
1.142068133191139,-0.02314596075116341,9.804152725801025,-0.03326881242446038,0.04275803963927683,-0.007360169087694907,4.539078156312625
0.9626003297818089,0.032624133029787256,9.810943029521296,0.053587928060949,0.0401927667573841,-0.0012348264404032536,4.5490981963927855
1.1624140904145432,-0.016823742938975678,9.804983948689577,0.018810801534011518,-0.004046185953859122,-0.03863147146488807,4.559118236472946
0.9918352344998037,0.08393523277610777,9.784428643471783,0.06467852681991618,0.01376442789249199,0.001955840925702337,4.569138276553106
0.863038008505349,-0.04831066767850667,9.806385706903809,-0.0010683240808171818,0.03589396355144497,0.0461322953193227,4.579158316633267
1.0218983474777366,0.09871831986663215,9.78500956534492,0.02398773772954838,0.03209309660134312,-0.017175122152600013,4.589178356713426
0.9636329938610931,0.043636957179923566,9.798472985413971,-0.06460505580732424,-0.029104300945981376,0.010929947614711739,4.599198396793587
0.9141168604418809,0.1163788245227859,9.812995338030737,0.09683107673553126,-0.0004923869771519169,-0.01932259098531832,4.609218436873747
1.012447485071282,0.003547210751977069,9.815458154097316,-0.0052973141660561645,0.04703246872734821,-0.030287342328560878,4.619238476953908
1.0731535300744375,-0.005536837373808338,9.83088000193689,-0.06564901067365364,0.002702720080190447,-0.034118542567914086,4.629258517034068
1.1032094256242697,-0.02508210079279522,9.818975015171693,-0.020581963099761597,0.015902446491926025,-0.04788439521720091,4.6392785571142285
1.1012357599177665,0.047755498978007266,9.8268204541186,0.07814000778421165,-0.05224588749425372,-0.019793161788588306,4.649298597194389
1.0385645148804927,0.08381559281423419,9.807342533160002,-0.07086066265408697,0.03461481300053782,-0.005441850349409976,4.6593186372745485
1.0066226380132597,-0.01391113734657546,9.833342540318423,0.022793423360896597,0.020778792112535256,-0.025984106347485485,4.669338677354709
1.0307212563086718,-0.0014178246709432756,9.813277283232813,-0.0372530464176826,0.018876767027817494,-0.02291507673745723,4.679358717434869
0.9770559927245621,0.0770156319040032,9.79411527489697,-0.010068877554955967,-0.0006524121066584678,0.0168858976597514,4.68937875751503
0.8720905292707433,0.014010189072950771,9.828122934906686,-0.02480136913063754,-0.036726310098338134,0.026531895578605382,4.69939879759519
0.8806687696209426,0.07161278272223258,9.789745750260426,-0.07098813401467716,0.00800460109182334,-0.03538259538787148,4.709418837675351
1.034411591038744,-0.012795665689293785,9.783962772615224,-0.004653309924611243,-0.006479822904102583,0.051497680190906794,4.719438877755511
0.9155326500826917,-0.05165225813783351,9.822210301458613,0.02372589350940292,0.039954635304781196,0.022265076655461676,4.729458917835671
0.9667806733329296,-0.02089059117025288,9.780412382226347,0.025153651510015078,0.0034523421473580188,-0.0237725401726841,4.739478957915831
0.9516822876469666,0.005352691404350245,9.80446959873564,-0.055104404923334085,0.055388368067777895,-0.02164709740666902,4.749498997995992
1.0220256907475993,0.031189040707724144,9.852064686488468,0.10913892720796677,-0.03731782469052206,-0.045099668991531526,4.759519038076152
1.0875240405977218,0.09486134009814506,9.80681960213869,0.013559716732627666,0.023604115903409172,-0.0008063143051941483,4.7695390781563125
1.073849298313083,-0.005972620851029707,9.81568881186518,-0.003826723378875522,0.007822299589915285,-0.041746723323854526,4.779559118236473
1.1658749694146986,0.08379715603275883,9.794738357221643,-0.011890351096249606,0.02162657981758641,-0.013213410764863289,4.789579158316633
0.9805379988486537,0.03526705985121433,9.819654271491139,0.04820702720267631,0.006863568581864014,-0.010005971378873465,4.799599198396794
1.0348854906586182,-0.037383553177594946,9.825750677810914,-0.07366521072992625,0.0020052690400218136,-0.05333512864835508,4.809619238476953
1.104723294639821,-0.00031095843841564565,9.768066111956399,0.11100445068774292,0.05522136044054827,-0.013716183662252752,4.819639278557114
1.0108693459514095,0.05190250977415929,9.796088845800314,-0.021988130133789245,0.016492905044351986,-0.01322306088558667,4.829659318637274
1.1698974703845204,0.04382545796475848,9.776610635880502,0.0094825821154263,0.06356248944923479,0.01991307409515704,4.839679358717435
1.0491847686036688,0.04198637160193874,9.789579438497734,0.007997366863931536,-0.010593060640885532,-0.019650073914786986,4.849699398797595
1.144822469728944,0.0633482368192714,9.814410662019707,-0.010129562532731243,-0.0032613743993046072,-0.007979274915539103,4.859719438877756
1.2729540281091842,-0.04592767977618351,9.829123360777993,0.049755554008077206,0.019245389527756243,0.011174069236079701,4.869739478957916
0.8777253249098154,0.055980884989377845,9.831394665304506,0.03301278309433621,-0.007617178181633999,-0.06958399723622022,4.879759519038076
0.8348257512856592,-0.06390876132348229,9.852566369366121,0.016924297205576835,-0.012124447704046526,0.01287196802213455,4.889779559118236
0.9667637388776303,-0.005563202037282774,9.846011168111914,-0.029966763534528998,-0.0021221593303337367,0.017955946386883248,4.8997995991983965
0.9052154908462169,-0.0665298340969358,9.806071214796305,-0.004312985316203836,-0.03643976726231896,-0.039151082018124964,4.909819639278557
0.9161345090888368,-0.049328155652354835,9.833695673307986,0.015150470714270116,0.004359765404597933,0.08320087096144996,4.919839679358717
0.9867187674244661,0.053148502705955586,9.796517365834395,-0.039013671438509895,0.010964339992893481,0.016894999568803606,4.929859719438878
1.0418183159004861,0.03193767227795223,9.779885124260428,0.022244972739869855,-0.05070485015173835,-0.05462383659445295,4.939879759519038
0.8831246971022131,0.05869765103668293,9.819297107590762,0.026202313730294795,-0.006184577334712913,-0.040414522367779634,4.949899799599198
1.0304501185828012,-0.05694506376119566,9.77979193726122,0.008692388840281578,-0.06541051079793958,0.014497372078347635,4.959919839679358
0.9045473488252476,-0.0297679034064655,9.804588063464728,-0.052362066529873554,-0.010266647716428146,0.04096924992311889,4.969939879759519
1.0169132493626434,0.07499308635463424,9.808405155040798,0.04595014033774373,-0.02041233834401871,0.051950824037744606,4.979959919839679
0.9397243125469121,-0.013537757162934006,9.78480054277499,0.028027277959203477,-0.032387073066153876,-0.006587681070702289,4.98997995991984
0.8478525352443603,-0.0056241327083949725,9.792257755265789,-0.024611615194760975,-0.03632097691078829,0.041551733873923594,5.0
